Date	Latitude(deg)	Longitude(deg)	hamsl(m)	hafl(m)	climbrate(cm/s)	GroundSpeed(m/s)	Airspeed(m/s)	Mav_Link(%)	Rssi_Link(%)	Throttle	Roll(deg)	Pitch(deg)	Yaw(deg)	Rollrate(dps)	Pitchrate(dps)	Yawrate(dps)	accelX(m/s/s)	accelY(m/s/s)	accelZ(m/s/s)	vgN(mps)	vgE(mps)	vgD(mps)	Aileron(unit)	Elevator(unit)	Rudder(unit)	Throttle(unit)
17:55:59:475	0	0	0	0	0	0	0	0	0	0	1.380538	2.584929	161.4996	0.001927564	0.01963756	0	0	0	-1000.103	0	0	0	1.71206E-07	-0.0001335089	0	0	
17:55:59:486	0	0	0	0	0	0	0	0	0	0	1.380538	2.584929	161.4996	0.001927564	0.01963756	0	0	0	-1000.103	0	0	0	1.71206E-07	-0.0001335089	0	0	
17:55:59:502	0	0	0	0	0	0	0	0	0	0	1.380538	2.584929	161.4996	0.001927564	0.01963756	0	0	0	-1000.103	0	0	0	1.71206E-07	-0.0001335089	0	0	
17:55:59:544	0	0	0	0	0	0	0	0	0	0	1.380538	2.584929	161.4996	0.001927564	0.01963756	0	0	0	-1000.103	0	0	0	1.71206E-07	-0.0001335089	0	0	
17:55:59:568	0	0	0	0	0	0	0	0	0	0	1.380538	2.584929	161.4996	0.001927564	0.01963756	0	0	0	-1000.103	0	0	0	1.71206E-07	-0.0001335089	0	0	
17:55:59:584	0	0	0	0	0	0	0	0	0	0	1.380538	2.584929	161.4996	0.001927564	0.01963756	0	0	0	-1000.103	0	0	0	1.71206E-07	-0.0001335089	0	0	
17:55:59:605	0	0	0	0	0	0	0	0	0	0	1.380538	2.584929	161.4996	0.001927564	0.01963756	0	0	0	-1000.103	0	0	0	1.71206E-07	-0.0001335089	0	0	
17:55:59:641	0	0	0	0	0	0	0	0	0	0	1.380538	2.584929	161.4996	0.001927564	0.01963756	0	0	0	-1000.103	0	0	0	1.71206E-07	-0.0001335089	0	0	
17:55:59:662	0	0	0	0	0	0	0	0	0	0	1.380538	2.584929	161.4996	0.001927564	0.01963756	0	0	0	-1000.103	0	0	0	1.71206E-07	-0.0001335089	0	0	
17:55:59:682	0	0	0	0	0	0	0	0	0	0	1.380538	2.584929	161.4996	0.001927564	0.01963756	0	0	0	-1000.103	0	0	0	1.71206E-07	-0.0001335089	0	0	
17:55:59:706	0	0	0	0	0	0	0	0	0	0	1.380538	2.584929	161.4996	0.001927564	0.01963756	0	0	0	-1000.103	0	0	0	1.71206E-07	-0.0001335089	0	0	
17:55:59:749	0	0	0	0	0	0	0	0	0	0	1.380538	2.584929	161.4996	0.001927564	0.01963756	0	0	0	-1000.103	0	0	0	1.71206E-07	-0.0001335089	0	0	
17:55:59:765	0	0	0	0	0	0	0	0	0	0	1.380538	2.584929	161.4996	0.001927564	0.01963756	0	0	0	-1000.103	0	0	0	1.71206E-07	-0.0001335089	0	0	
17:55:59:784	0	0	0	0	0	0	0	0	0	0	1.380538	2.584929	161.4996	0.001927564	0.01963756	0	0	0	-1000.103	0	0	0	1.71206E-07	-0.0001335089	0	0	
17:55:59:806	0	0	0	0	0	0	0	0	0	0	1.380538	2.584929	161.4996	0.001927564	0.01963756	0	0	0	-1000.103	0	0	0	1.71206E-07	-0.0001335089	0	0	
17:55:59:846	0	0	0	0	0	0	0	0	0	0	1.380538	2.584929	161.4996	0.001927564	0.01963756	0	0	0	-1000.103	0	0	0	1.71206E-07	-0.0001335089	0	0	
17:55:59:867	47.46363	-122.3077	0.02103662	0.02103662	0	0	0	0	0	0	1.380538	2.584929	161.4996	0.001927564	0.01963756	0	0	0	-1000.103	0	0	-4.637301E-05	1.71206E-07	-0.0001335089	0	0	
17:55:59:882	47.46363	-122.3077	0.02103662	0.02103662	0	0	0	0	0	0	1.380538	2.584929	161.4996	0.001927564	0.01963756	0	0	0	-1000.103	0	0	-4.637301E-05	1.71206E-07	-0.0001335089	0	0	
17:55:59:903	47.46363	-122.3077	0.02103662	0.02103662	0	0	0	0	0	0	1.380538	2.584929	161.4996	0.001927564	0.01963756	0	0	0	-1000.103	0	0	-4.637301E-05	1.71206E-07	-0.0001335089	0	0	
17:55:59:946	47.46363	-122.3077	0.02103662	0.02103662	0	0	0	0	0	0	1.380538	2.584929	161.4996	0.001927564	0.01963756	0	0	0	-1000.103	0	0	-4.637301E-05	1.71206E-07	-0.0001335089	0	0	
17:55:59:965	47.46363	-122.3077	0.02103662	0.02103662	0	0	0	0	0	0	1.380538	2.584929	161.4996	0.001927564	0.01963756	0	0	0	-1000.103	0	0	-4.637301E-05	1.71206E-07	-0.0001335089	0	0	
17:55:59:986	47.46363	-122.3077	0.02103662	0.02103662	0	0	0	0	0	0	1.380538	2.584929	161.4996	0.001927564	0.01963756	0	0	0	-1000.103	0	0	-4.637301E-05	1.71206E-07	-0.0001335089	0	0	
17:56:00:6	47.46363	-122.3077	0.02103662	0.02103662	0	0	0	0	0	0	1.380538	2.584929	161.4996	0.001927564	0.01963756	0	0	0	-1000.103	0	0	-4.637301E-05	1.71206E-07	-0.0001335089	0	0	
17:56:00:47	47.46363	-122.3077	0.02103662	0.02103662	0	0	0	0	0	0	1.3813	2.560492	161.499	0.01466133	-0.6443262	0	0	0	-1000.21	0	0	-4.637301E-05	-3	-3	-3	0	
17:56:00:49	47.46363	-122.3077	0.02103662	0.02103662	0	0	0	0	0	0	1.3813	2.560492	161.499	0.01466133	-0.6443262	0	0	0	-1000.21	0	0	-4.637301E-05	-3	-3	-3	0	
17:56:00:67	47.46363	-122.3077	0.02103662	0.02103662	0	0	0	0	0	0	1.3813	2.560492	161.499	0.01466133	-0.6443262	0	0	0	-1000.21	0	0	-4.637301E-05	-3	-3	-3	0	
17:56:00:84	47.46363	-122.3077	0.02103662	0.02103662	0	0	0	0	0	0	1.3813	2.560492	161.499	0.01466133	-0.6443262	0	0	0	-1000.21	0	0	-4.637301E-05	-3	-3	-3	0	
17:56:00:105	47.46363	-122.3077	0.02103662	0.02103662	0	0	0	0	0	0	1.3813	2.560492	161.499	0.01466133	-0.6443262	0	0	0	-1000.21	0	0	-4.637301E-05	-3	-3	-3	0	
17:56:00:147	47.46363	-122.3077	0.02103662	0.02103662	0	0	0	0	0	0	1.3813	2.560492	161.499	0.01466133	-0.6443262	0	0	0	-1000.21	0	0	-4.637301E-05	-3	-3	-3	0	
17:56:00:165	47.46363	-122.3077	0.02103662	0.02103662	0	0	0	0	0	0	1.3813	2.560492	161.499	0.01466133	-0.6443262	0	0	0	-1000.21	0	0	-4.637301E-05	-3	-3	-3	0	
17:56:00:186	47.46363	-122.3077	0.02103662	0.02103662	0	0	0	0	0	0	1.3813	2.560492	161.499	0.01466133	-0.6443262	0	0	0	-1000.21	0	0	-4.637301E-05	-3	-3	-3	0	
17:56:00:207	47.46363	-122.3077	0.02103662	0.02103662	0	0	0	0	0	0	1.3813	2.560492	161.499	0.01466133	-0.6443262	0	0	0	-1000.21	0	0	-4.637301E-05	-3	-3	-3	0	
17:56:00:263	47.46363	-122.3077	0.02103662	0.02103662	0	0	0	0	0	0	1.381927	2.5088	161.4977	0.01360936	-1.133018	0	0	0	-997.9569	0	0	-4.637301E-05	-3	-3	-3	0	
17:56:00:284	47.46363	-122.3077	0.0211478	0.0211478	0	0	0	0	0	0	1.381927	2.5088	161.4977	0.01360936	-1.133018	0	0	0	-997.9569	0	0	-0.002236061	-3	-3	-3	0	
17:56:00:305	47.46363	-122.3077	0.0211478	0.0211478	0	0	0	0	0	0	1.381927	2.5088	161.4977	0.01360936	-1.133018	0	0	0	-997.9569	0	0	-0.002236061	-3	-3	-3	0	
17:56:00:351	47.46363	-122.3077	0.0211478	0.0211478	0	0	0	0	0	0	1.382465	2.440198	161.4961	0.01004236	-1.430267	0	0	0	-999.1102	0	0	-0.002236061	-3	-3	-3	0	
17:56:00:367	47.46363	-122.3077	0.0211478	0.0211478	0	0	0	0	0	0	1.382465	2.440198	161.4961	0.01004236	-1.430267	0	0	0	-999.1102	0	0	-0.002236061	-3	-3	-3	0	
17:56:00:386	47.46363	-122.3077	0.0211478	0.0211478	0	0	0	0	0	0	1.382465	2.440198	161.4961	0.01004236	-1.430267	0	0	0	-999.1102	0	0	-0.002236061	-3	-3	-3	0	
17:56:00:408	47.46363	-122.3077	0.0211478	0.0211478	0	0	0	0	0	0	1.382465	2.440198	161.4961	0.01004236	-1.430267	0	0	0	-999.1102	0	0	-0.002236061	-3	-3	-3	0	
17:56:00:470	47.46363	-122.3077	0.0211478	0.0211478	0	0	0	0	0	0	1.382465	2.440198	161.4961	0.01004236	-1.430267	0	0	0	-999.1102	0	0	-0.002236061	-3	-3	-3	0	
17:56:00:485	47.46363	-122.3077	0.02122492	0.02122492	0	0	0	0	0	0	1.382758	2.362251	161.4942	0.006831665	-1.580196	0	0	0	-999.9189	0	0	-0.001322281	-3	-3	-3	0	
17:56:00:506	47.46363	-122.3077	0.02122492	0.02122492	0	0	0	0	0	0	1.382758	2.362251	161.4942	0.006831665	-1.580196	0	0	0	-999.9189	0	0	-0.001322281	-3	-3	-3	0	
17:56:00:551	47.46363	-122.3077	0.02122492	0.02122492	0	0	0	0	0	0	1.382758	2.362251	161.4942	0.006831665	-1.580196	0	0	0	-999.9189	0	0	-0.001322281	-3	-3	-3	0	
17:56:00:568	47.46363	-122.3077	0.02122492	0.02122492	0	0	0	0	0	0	1.382758	2.362251	161.4942	0.006831665	-1.580196	0	0	0	-999.9189	0	0	-0.001322281	-3	-3	-3	0	
17:56:00:588	47.46363	-122.3077	0.02122492	0.02122492	0	0	0	0	0	0	1.382758	2.362251	161.4942	0.006831665	-1.580196	0	0	0	-999.9189	0	0	-0.001322281	-3	-3	-3	0	
17:56:00:610	47.46363	-122.3077	0.02122492	0.02122492	0	0	0	0	0	0	1.382758	2.362251	161.4942	0.006831665	-1.580196	0	0	0	-999.9189	0	0	-0.001322281	-3	-3	-3	0	
17:56:00:646	47.46363	-122.3077	0.02122492	0.02122492	0	0	0	0	0	0	1.3858	2.2821	161.4922	0.1232054	-1.586812	0	0	0	-996.1	0	0	-0.001322281	-3	-3	-3	0	
17:56:00:669	47.46363	-122.3077	0.02122492	0.02122492	0	0	0	0	0	0	1.3858	2.2821	161.4922	0.1232054	-1.586812	0	0	0	-996.1	0	0	-0.001322281	-3	-3	-3	0	
17:56:00:690	47.46363	-122.3077	0.02132831	0.02132831	0	0	0	0	0	0	1.3858	2.2821	161.4922	0.1232054	-1.586812	0	0	0	-996.1	0	0	-0.001038164	-3	-3	-3	0	
17:56:00:706	47.46363	-122.3077	0.02132831	0.02132831	0	0	0	0	0	0	1.3858	2.2821	161.4922	0.1232054	-1.586812	0	0	0	-996.1	0	0	-0.001038164	-3	-3	-3	0	
17:56:00:753	47.46363	-122.3077	0.02132831	0.02132831	0	0	0	0	0	0	1.3858	2.2821	161.4922	0.1232054	-1.586812	0	0	0	-996.1	0	0	-0.001038164	-3	-3	-3	0	
17:56:00:772	47.46363	-122.3077	0.02132831	0.02132831	0	0	0	0	0	0	1.395375	2.206735	161.4904	0.2008693	-1.463082	0	0	0	-1001.204	0	0	-0.001038164	-3	-3	-3	0	
17:56:00:789	47.46363	-122.3077	0.02132831	0.02132831	0	0	0	0	0	0	1.395375	2.206735	161.4904	0.2008693	-1.463082	0	0	0	-1001.204	0	0	-0.001038164	-3	-3	-3	0	
17:56:00:813	47.46363	-122.3077	0.02132831	0.02132831	0	0	0	0	0	0	1.395375	2.206735	161.4904	0.2008693	-1.463082	0	0	0	-1001.204	0	0	-0.001038164	-3	-3	-3	0	
17:56:00:854	47.46363	-122.3077	0.02132831	0.02132831	0	0	0	0	0	0	1.395375	2.206735	161.4904	0.2008693	-1.463082	0	0	0	-1001.204	0	0	-0.001038164	-3	-3	-3	0	
17:56:00:870	47.46363	-122.3077	0.02132831	0.02132831	0	0	0	0	0	0	1.395375	2.206735	161.4904	0.2008693	-1.463082	0	0	0	-1001.204	0	0	-0.001038164	-3	-3	-3	0	
17:56:00:892	47.46363	-122.3077	0.02135662	0.02135662	0	0	0	0	0	0	1.395375	2.206735	161.4904	0.2008693	-1.463082	0	0	0	-1001.204	0	0	-0.0001236891	-3	-3	-3	0	
17:56:00:912	47.46363	-122.3077	0.02135662	0.02135662	0	0	0	0	0	0	1.404179	2.140733	161.4888	0.1640048	-1.25832	0	0	0	-1000.211	0	0	-0.0001236891	-3	-3	-3	0	
17:56:00:949	47.46363	-122.3077	0.02135662	0.02135662	0	0	0	0	0	0	1.404179	2.140733	161.4888	0.1640048	-1.25832	0	0	0	-1000.211	0	0	-0.0001236891	-3	-3	-3	0	
17:56:00:969	47.46363	-122.3077	0.02135662	0.02135662	0	0	0	0	0	0	1.404179	2.140733	161.4888	0.1640048	-1.25832	0	0	0	-1000.211	0	0	-0.0001236891	-3	-3	-3	0	
17:56:00:989	47.46363	-122.3077	0.02135662	0.02135662	0	0	0	0	0	0	1.404179	2.140733	161.4888	0.1640048	-1.25832	0	0	0	-1000.211	0	0	-0.0001236891	-3	-3	-3	0	
17:56:01:10	47.46363	-122.3077	0.02135662	0.02135662	0	0	0	0	0	0	1.404179	2.140733	161.4888	0.1640048	-1.25832	0	0	0	-1000.211	0	0	-0.0001236891	-3	-3	-3	0	
17:56:01:50	47.46363	-122.3077	0.02135662	0.02135662	0	0	0	0	0	0	1.40978	2.087085	161.4875	0.09354722	-1.001438	0	0	0	-999.4755	0	0	-0.0001236891	-3	-3	-3	0	
17:56:01:54	47.46363	-122.3077	0.02135662	0.02135662	0	0	0	0	0	0	1.40978	2.087085	161.4875	0.09354722	-1.001438	0	0	0	-999.4755	0	0	-0.0001236891	-3	-3	-3	0	
17:56:01:71	47.46363	-122.3077	0.02135662	0.02135662	0	0	0	0	0	0	1.40978	2.087085	161.4875	0.09354722	-1.001438	0	0	0	-999.4755	0	0	-0.0001236891	-3	-3	-3	0	
17:56:01:92	47.46363	-122.3077	0.02135662	0.02135662	0	0	0	0	0	0	1.40978	2.087085	161.4875	0.09354722	-1.001438	0	0	0	-999.4755	0	0	-0.0001236891	-3	-3	-3	0	
17:56:01:112	47.46363	-122.3077	0.02137224	0.02137224	0	0	0	0	0	0	1.40978	2.087085	161.4875	0.09354722	-1.001438	0	0	0	-999.4755	0	0	-0.0004886715	-3	-3	-3	0	
17:56:01:154	47.46363	-122.3077	0.02137224	0.02137224	0	0	0	0	0	0	1.40978	2.087085	161.4875	0.09354722	-1.001438	0	0	0	-999.4755	0	0	-0.0004886715	-3	-3	-3	0	
17:56:01:176	47.46363	-122.3077	0.02137224	0.02137224	0	0	0	0	0	0	1.40978	2.087085	161.4875	0.09354722	-1.001438	0	0	0	-999.4755	0	0	-0.0004886715	-3	-3	-3	0	
17:56:01:195	47.46363	-122.3077	0.02137224	0.02137224	0	0	0	0	0	0	1.40978	2.087085	161.4875	0.09354722	-1.001438	0	0	0	-999.4755	0	0	-0.0004886715	-3	-3	-3	0	
17:56:01:209	47.46363	-122.3077	0.02137224	0.02137224	0	0	0	0	0	0	1.40978	2.087085	161.4875	0.09354722	-1.001438	0	0	0	-999.4755	0	0	-0.0004886715	-3	-3	-3	0	
17:56:01:272	47.46363	-122.3077	0.02137224	0.02137224	0	0	0	0	0	0	1.40978	2.087085	161.4875	0.09354722	-1.001438	0	0	0	-999.4755	0	0	-0.0004886715	-3	-3	-3	0	
17:56:01:294	47.46363	-122.3077	0.02137224	0.02137224	0	0	0	0	0	0	1.40978	2.087085	161.4875	0.09354722	-1.001438	0	0	0	-999.4755	0	0	-0.0004886715	-3	-3	-3	0	
17:56:01:313	47.46363	-122.3077	0.02144423	0.02144423	0	0	0	0	0	0	1.40978	2.087085	161.4875	0.09354722	-1.001438	0	0	0	-999.4755	0	0	-0.0006963919	-3	-3	-3	0	
17:56:01:381	47.46363	-122.3077	0.02144423	0.02144423	0	0	0	0	0	0	1.40978	2.087085	161.4875	0.09354722	-1.001438	0	0	0	-999.4755	0	0	-0.0006963919	-3	-3	-3	0	
17:56:01:403	47.46363	-122.3077	0.02144423	0.02144423	0	0	0	0	0	0	1.40978	2.087085	161.4875	0.09354722	-1.001438	0	0	0	-999.4755	0	0	-0.0006963919	-3	-3	-3	0	
17:56:01:405	47.46363	-122.3077	0.02144423	0.02144423	0	0	0	0	0	0	1.40978	2.087085	161.4875	0.09354722	-1.001438	0	0	0	-999.4755	0	0	-0.0006963919	-3	-3	-3	0	
17:56:01:415	47.46363	-122.3077	0.02144423	0.02144423	0	0	0	0	0	0	1.40978	2.087085	161.4875	0.09354722	-1.001438	0	0	0	-999.4755	0	0	-0.0006963919	-3	-3	-3	0	
17:56:01:472	47.46363	-122.3077	0.02144423	0.02144423	0	0	0	0	0	0	1.412507	2.047435	161.4865	0.04266361	-0.716943	0	0	0	-999.6912	0	0	-0.0006963919	-3	-3	-3	0	
17:56:01:493	47.46363	-122.3077	0.02144423	0.02144423	0	0	0	0	0	0	1.412507	2.047435	161.4865	0.04266361	-0.716943	0	0	0	-999.6912	0	0	-0.0006963919	-3	-3	-3	0	
17:56:01:513	47.46363	-122.3077	0.02144423	0.02144423	0	0	0	0	0	0	1.412507	2.047435	161.4865	0.04266361	-0.716943	0	0	0	-999.6912	0	0	-0.0006963919	-3	-3	-3	0	
17:56:01:555	47.46363	-122.3077	0.02144423	0.02144423	0	0	0	0	0	0	1.412507	2.047435	161.4865	0.04266361	-0.716943	0	0	0	-999.6912	0	0	-0.0006963919	-3	-3	-3	0	
17:56:01:576	47.46363	-122.3077	0.02144423	0.02144423	0	0	0	0	0	0	1.412507	2.047435	161.4865	0.04266361	-0.716943	0	0	0	-999.6912	0	0	-0.0006963919	-3	-3	-3	0	
17:56:01:591	47.46363	-122.3077	0.02144423	0.02144423	0	0	0	0	0	0	1.412507	2.047435	161.4865	0.04266361	-0.716943	0	0	0	-999.6912	0	0	-0.0006963919	-3	-3	-3	0	
17:56:01:616	47.46363	-122.3077	0.02144423	0.02144423	0	0	0	0	0	0	1.413415	2.022302	161.4859	0.01314492	-0.4286002	0	0	0	-999.752	0	0	-0.0006963919	-3	-3	-3	0	
17:56:01:652	47.46363	-122.3077	0.02144423	0.02144423	0	0	0	0	0	0	1.413415	2.022302	161.4859	0.01314492	-0.4286002	0	0	0	-999.752	0	0	-0.0006963919	-3	-3	-3	0	
17:56:01:673	47.46363	-122.3077	0.02144423	0.02144423	0	0	0	0	0	0	1.413415	2.022302	161.4859	0.01314492	-0.4286002	0	0	0	-999.752	0	0	-0.0006963919	-3	-3	-3	0	
17:56:01:698	47.46363	-122.3077	0.02144423	0.02144423	0	0	0	0	0	0	1.413415	2.022302	161.4859	0.01314492	-0.4286002	0	0	0	-999.752	0	0	-0.0006963919	-3	-3	-3	0	
17:56:01:713	47.46363	-122.3077	0.02147346	0.02147346	0	0	0	0	0	0	1.413415	2.022302	161.4859	0.01314492	-0.4286002	0	0	0	-999.752	0	0	-0.0005463184	-3	-3	-3	0	
17:56:01:755	47.46363	-122.3077	0.02147346	0.02147346	0	0	0	0	0	0	1.413342	2.011086	161.4856	-0.004511365	-0.1570039	0	0	0	-999.6254	0	0	-0.0005463184	-3	-3	-3	0	
17:56:01:781	47.46363	-122.3077	0.02147346	0.02147346	0	0	0	0	0	0	1.413342	2.011086	161.4856	-0.004511365	-0.1570039	0	0	0	-999.6254	0	0	-0.0005463184	-3	-3	-3	0	
17:56:01:798	47.46363	-122.3077	0.02147346	0.02147346	0	0	0	0	0	0	1.413342	2.011086	161.4856	-0.004511365	-0.1570039	0	0	0	-999.6254	0	0	-0.0005463184	-3	-3	-3	0	
17:56:01:816	47.46363	-122.3077	0.02147346	0.02147346	0	0	0	0	0	0	1.413342	2.011086	161.4856	-0.004511365	-0.1570039	0	0	0	-999.6254	0	0	-0.0005463184	-3	-3	-3	0	
17:56:01:861	47.46363	-122.3077	0.02147346	0.02147346	0	0	0	0	0	0	1.413342	2.011086	161.4856	-0.004511365	-0.1570039	0	0	0	-999.6254	0	0	-0.0005463184	-3	-3	-3	0	
17:56:01:875	47.46363	-122.3077	0.02147346	0.02147346	0	0	0	0	0	0	1.413342	2.011086	161.4856	-0.004511365	-0.1570039	0	0	0	-999.6254	0	0	-0.0005463184	-3	-3	-3	0	
17:56:01:894	47.46363	-122.3077	0.02147346	0.02147346	0	0	0	0	0	0	1.412866	2.012795	161.4857	-0.01064532	0.09561958	0	0	0	-999.7907	0	0	-0.0005463184	-3	-3	-3	0	
17:56:01:915	47.46363	-122.3077	0.02149222	0.02149222	0	0	0	0	0	0	1.412866	2.012795	161.4857	-0.01064532	0.09561958	0	0	0	-999.7907	0	0	-0.0003368917	-3	-3	-3	0	
17:56:01:958	47.46363	-122.3077	0.02149222	0.02149222	0	0	0	0	0	0	1.412866	2.012795	161.4857	-0.01064532	0.09561958	0	0	0	-999.7907	0	0	-0.0003368917	-3	-3	-3	0	
17:56:01:976	47.46363	-122.3077	0.02149222	0.02149222	0	0	0	0	0	0	1.412866	2.012795	161.4857	-0.01064532	0.09561958	0	0	0	-999.7907	0	0	-0.0003368917	-3	-3	-3	0	
17:56:01:994	47.46363	-122.3077	0.02149222	0.02149222	0	0	0	0	0	0	1.412866	2.012795	161.4857	-0.01064532	0.09561958	0	0	0	-999.7907	0	0	-0.0003368917	-3	-3	-3	0	
17:56:02:18	47.46363	-122.3077	0.02149222	0.02149222	0	0	0	0	0	0	1.412573	2.024783	161.486	-0.005061079	0.2831512	0	0	0	-1000.018	0	0	-0.0003368917	-3	-3	-3	0	
17:56:02:54	47.46363	-122.3077	0.02149222	0.02149222	0	0	0	0	0	0	1.412573	2.024783	161.486	-0.005061079	0.2831512	0	0	0	-1000.018	0	0	-0.0003368917	-3	-3	-3	0	
17:56:02:58	47.46363	-122.3077	0.02149222	0.02149222	0	0	0	0	0	0	1.412573	2.024783	161.486	-0.005061079	0.2831512	0	0	0	-1000.018	0	0	-0.0003368917	-3	-3	-3	0	
17:56:02:79	47.46363	-122.3077	0.02149222	0.02149222	0	0	0	0	0	0	1.412573	2.024783	161.486	-0.005061079	0.2831512	0	0	0	-1000.018	0	0	-0.0003368917	-3	-3	-3	0	
17:56:02:98	47.46363	-122.3077	0.02149222	0.02149222	0	0	0	0	0	0	1.412573	2.024783	161.486	-0.005061079	0.2831512	0	0	0	-1000.018	0	0	-0.0003368917	-3	-3	-3	0	
17:56:02:115	47.46363	-122.3077	0.02149881	0.02149881	0	0	0	0	0	0	1.412573	2.024783	161.486	-0.005061079	0.2831512	0	0	0	-1000.018	0	0	9.990884E-05	-3	-3	-3	0	
17:56:02:161	47.46363	-122.3077	0.02149881	0.02149881	0	0	0	0	0	0	1.412406	2.044638	161.4865	-0.003328905	0.4285165	0	0	0	-1000.057	0	0	9.990884E-05	-3	-3	-3	0	
17:56:02:177	47.46363	-122.3077	0.02149881	0.02149881	0	0	0	0	0	0	1.412406	2.044638	161.4865	-0.003328905	0.4285165	0	0	0	-1000.057	0	0	9.990884E-05	-3	-3	-3	0	
17:56:02:197	47.46363	-122.3077	0.02149881	0.02149881	0	0	0	0	0	0	1.412406	2.044638	161.4865	-0.003328905	0.4285165	0	0	0	-1000.057	0	0	9.990884E-05	-3	-3	-3	0	
17:56:02:217	47.46363	-122.3077	0.02149881	0.02149881	0	0	0	0	0	0	1.412406	2.044638	161.4865	-0.003328905	0.4285165	0	0	0	-1000.057	0	0	9.990884E-05	-3	-3	-3	0	
17:56:02:275	47.46363	-122.3077	0.02149881	0.02149881	0	0	0	0	0	0	1.412406	2.044638	161.4865	-0.003328905	0.4285165	0	0	0	-1000.057	0	0	9.990884E-05	-3	-3	-3	0	
17:56:02:295	47.46363	-122.3077	0.02149881	0.02149881	0	0	0	0	0	0	1.412492	2.069868	161.4871	0.0003930433	0.5224156	0	0	0	-1000.073	0	0	9.990884E-05	-3	-3	-3	0	
17:56:02:316	47.46363	-122.3077	0.02149436	0.02149436	0	0	0	0	0	0	1.412492	2.069868	161.4871	0.0003930433	0.5224156	0	0	0	-1000.073	0	0	0.000111484	-3	-3	-3	0	
17:56:02:358	47.46363	-122.3077	0.02149436	0.02149436	0	0	0	0	0	0	1.412492	2.069868	161.4871	0.0003930433	0.5224156	0	0	0	-1000.073	0	0	0.000111484	-3	-3	-3	0	
17:56:02:378	47.46363	-122.3077	0.02149436	0.02149436	0	0	0	0	0	0	1.412492	2.069868	161.4871	0.0003930433	0.5224156	0	0	0	-1000.073	0	0	0.000111484	-3	-3	-3	0	
17:56:02:397	47.46363	-122.3077	0.02149436	0.02149436	0	0	0	0	0	0	1.412492	2.069868	161.4871	0.0003930433	0.5224156	0	0	0	-1000.073	0	0	0.000111484	-3	-3	-3	0	
17:56:02:418	47.46363	-122.3077	0.02149436	0.02149436	0	0	0	0	0	0	1.412492	2.069868	161.4871	0.0003930433	0.5224156	0	0	0	-1000.073	0	0	0.000111484	-3	-3	-3	0	
17:56:02:480	47.46363	-122.3077	0.02149436	0.02149436	0	0	0	0	0	0	1.412472	2.097817	161.4878	-0.001187415	0.5635264	0	0	0	-1000.101	0	0	0.000111484	-3	-3	-3	0	
17:56:02:496	47.46363	-122.3077	0.02149436	0.02149436	0	0	0	0	0	0	1.412472	2.097817	161.4878	-0.001187415	0.5635264	0	0	0	-1000.101	0	0	0.000111484	-3	-3	-3	0	
17:56:02:520	47.46363	-122.3077	0.02146855	0.02146855	0	0	0	0	0	0	1.412472	2.097817	161.4878	-0.001187415	0.5635264	0	0	0	-1000.101	0	0	0.0003024379	-3	-3	-3	0	
17:56:02:563	47.46363	-122.3077	0.02146855	0.02146855	0	0	0	0	0	0	1.412472	2.097817	161.4878	-0.001187415	0.5635264	0	0	0	-1000.101	0	0	0.0003024379	-3	-3	-3	0	
17:56:02:583	47.46363	-122.3077	0.02146855	0.02146855	0	0	0	0	0	0	1.412472	2.097817	161.4878	-0.001187415	0.5635264	0	0	0	-1000.101	0	0	0.0003024379	-3	-3	-3	0	
17:56:02:599	47.46363	-122.3077	0.02146855	0.02146855	0	0	0	0	0	0	1.412472	2.097817	161.4878	-0.001187415	0.5635264	0	0	0	-1000.101	0	0	0.0003024379	-3	-3	-3	0	
17:56:02:618	47.46363	-122.3077	0.02146855	0.02146855	0	0	0	0	0	0	1.412472	2.097817	161.4878	-0.001187415	0.5635264	0	0	0	-1000.101	0	0	0.0003024379	-3	-3	-3	0	
17:56:02:661	47.46363	-122.3077	0.02146855	0.02146855	0	0	0	0	0	0	1.412472	2.097817	161.4878	-0.001187415	0.5635264	0	0	0	-1000.101	0	0	0.0003024379	-3	-3	-3	0	
17:56:02:681	47.46363	-122.3077	0.02146855	0.02146855	0	0	0	0	0	0	1.412472	2.097817	161.4878	-0.001187415	0.5635264	0	0	0	-1000.101	0	0	0.0003024379	-3	-3	-3	0	
17:56:02:701	47.46363	-122.3077	0.02146855	0.02146855	0	0	0	0	0	0	1.412472	2.097817	161.4878	-0.001187415	0.5635264	0	0	0	-1000.101	0	0	0.0003024379	-3	-3	-3	0	
17:56:02:731	47.46363	-122.3077	0.02145072	0.02145072	0	0	0	0	0	0	1.4124	2.126097	161.4885	-0.002090813	0.5592764	0	0	0	-1000.133	0	0	0.0003707063	-3	-3	-3	0	
17:56:02:763	47.46363	-122.3077	0.02145072	0.02145072	0	0	0	0	0	0	1.4124	2.126097	161.4885	-0.002090813	0.5592764	0	0	0	-1000.133	0	0	0.0003707063	-3	-3	-3	0	
17:56:02:783	47.46363	-122.3077	0.02145072	0.02145072	0	0	0	0	0	0	1.4124	2.126097	161.4885	-0.002090813	0.5592764	0	0	0	-1000.133	0	0	0.0003707063	-3	-3	-3	0	
17:56:02:804	47.46363	-122.3077	0.02145072	0.02145072	0	0	0	0	0	0	1.4124	2.126097	161.4885	-0.002090813	0.5592764	0	0	0	-1000.133	0	0	0.0003707063	-3	-3	-3	0	
17:56:02:825	47.46363	-122.3077	0.02145072	0.02145072	0	0	0	0	0	0	1.4124	2.126097	161.4885	-0.002090813	0.5592764	0	0	0	-1000.133	0	0	0.0003707063	-3	-3	-3	0	
17:56:02:865	47.46363	-122.3077	0.02145072	0.02145072	0	0	0	0	0	0	1.4124	2.126097	161.4885	-0.002090813	0.5592764	0	0	0	-1000.133	0	0	0.0003707063	-3	-3	-3	0	
17:56:02:882	47.46363	-122.3077	0.02145072	0.02145072	0	0	0	0	0	0	1.4124	2.126097	161.4885	-0.002090813	0.5592764	0	0	0	-1000.133	0	0	0.0003707063	-3	-3	-3	0	
17:56:02:902	47.46363	-122.3077	0.02145072	0.02145072	0	0	0	0	0	0	1.412318	2.152715	161.4891	-0.002192887	0.5169712	0	0	0	-1000.277	0	0	0.0003707063	-3	-3	-3	0	
17:56:02:923	47.46363	-122.3077	0.02143041	0.02143041	0	0	0	0	0	0	1.412318	2.152715	161.4891	-0.002192887	0.5169712	0	0	0	-1000.277	0	0	0.0004136713	-3	-3	-3	0	
17:56:02:963	47.46363	-122.3077	0.02143041	0.02143041	0	0	0	0	0	0	1.412318	2.152715	161.4891	-0.002192887	0.5169712	0	0	0	-1000.277	0	0	0.0004136713	-3	-3	-3	0	
17:56:02:984	47.46363	-122.3077	0.02143041	0.02143041	0	0	0	0	0	0	1.412318	2.152715	161.4891	-0.002192887	0.5169712	0	0	0	-1000.277	0	0	0.0004136713	-3	-3	-3	0	
17:56:03:4	47.46363	-122.3077	0.02143041	0.02143041	0	0	0	0	0	0	1.412318	2.152715	161.4891	-0.002192887	0.5169712	0	0	0	-1000.277	0	0	0.0004136713	-3	-3	-3	0	
17:56:03:25	47.46363	-122.3077	0.02143041	0.02143041	0	0	0	0	0	0	1.412318	2.152715	161.4891	-0.002192887	0.5169712	0	0	0	-1000.277	0	0	0.0004136713	-3	-3	-3	0	
17:56:03:61	47.46363	-122.3077	0.02143041	0.02143041	0	0	0	0	0	0	1.412434	2.176104	161.4897	0.0008749269	0.4464594	0	0	0	-1000.157	0	0	0.0004136713	-3	-3	-3	0	
17:56:03:65	47.46363	-122.3077	0.02143041	0.02143041	0	0	0	0	0	0	1.412434	2.176104	161.4897	0.0008749269	0.4464594	0	0	0	-1000.157	0	0	0.0004136713	-3	-3	-3	0	
17:56:03:83	47.46363	-122.3077	0.02143041	0.02143041	0	0	0	0	0	0	1.412434	2.176104	161.4897	0.0008749269	0.4464594	0	0	0	-1000.157	0	0	0.0004136713	-3	-3	-3	0	
17:56:03:102	47.46363	-122.3077	0.02143041	0.02143041	0	0	0	0	0	0	1.412434	2.176104	161.4897	0.0008749269	0.4464594	0	0	0	-1000.157	0	0	0.0004136713	-3	-3	-3	0	
17:56:03:124	47.46363	-122.3077	0.02141482	0.02141482	0	0	0	0	0	0	1.412434	2.176104	161.4897	0.0008749269	0.4464594	0	0	0	-1000.157	0	0	0.0003010531	-3	-3	-3	0	
17:56:03:170	47.46363	-122.3077	0.02141482	0.02141482	0	0	0	0	0	0	1.412434	2.176104	161.4897	0.0008749269	0.4464594	0	0	0	-1000.157	0	0	0.0003010531	-3	-3	-3	0	
17:56:03:190	47.46363	-122.3077	0.02141482	0.02141482	0	0	0	0	0	0	1.412434	2.176104	161.4897	0.0008749269	0.4464594	0	0	0	-1000.157	0	0	0.0003010531	-3	-3	-3	0	
17:56:03:206	47.46363	-122.3077	0.02141482	0.02141482	0	0	0	0	0	0	1.412419	2.195149	161.4902	-0.0010125	0.3559291	0	0	0	-1000.315	0	0	0.0003010531	-3	-3	-3	0	
17:56:03:229	47.46363	-122.3077	0.02141482	0.02141482	0	0	0	0	0	0	1.412419	2.195149	161.4902	-0.0010125	0.3559291	0	0	0	-1000.315	0	0	0.0003010531	-3	-3	-3	0	
17:56:03:290	47.46363	-122.3077	0.02141482	0.02141482	0	0	0	0	0	0	1.412419	2.195149	161.4902	-0.0010125	0.3559291	0	0	0	-1000.315	0	0	0.0003010531	-3	-3	-3	0	
17:56:03:309	47.46363	-122.3077	0.02141482	0.02141482	0	0	0	0	0	0	1.412419	2.195149	161.4902	-0.0010125	0.3559291	0	0	0	-1000.315	0	0	0.0003010531	-3	-3	-3	0	
17:56:03:329	47.46363	-122.3077	0.02139934	0.02139934	0	0	0	0	0	0	1.412419	2.195149	161.4902	-0.0010125	0.3559291	0	0	0	-1000.315	0	0	0.0003115979	-3	-3	-3	0	
17:56:03:375	47.46363	-122.3077	0.02139934	0.02139934	0	0	0	0	0	0	1.412481	2.209233	161.4905	0.003348975	0.2546993	0	0	0	-1000.113	0	0	0.0003115979	-3	-3	-3	0	
17:56:03:389	47.46363	-122.3077	0.02139934	0.02139934	0	0	0	0	0	0	1.412481	2.209233	161.4905	0.003348975	0.2546993	0	0	0	-1000.113	0	0	0.0003115979	-3	-3	-3	0	
17:56:03:410	47.46363	-122.3077	0.02139934	0.02139934	0	0	0	0	0	0	1.412481	2.209233	161.4905	0.003348975	0.2546993	0	0	0	-1000.113	0	0	0.0003115979	-3	-3	-3	0	
17:56:03:430	47.46363	-122.3077	0.02139934	0.02139934	0	0	0	0	0	0	1.412481	2.209233	161.4905	0.003348975	0.2546993	0	0	0	-1000.113	0	0	0.0003115979	-3	-3	-3	0	
17:56:03:491	47.46363	-122.3077	0.02139934	0.02139934	0	0	0	0	0	0	1.412523	2.218084	161.4907	2.648835E-05	0.1496478	0	0	0	-1000.553	0	0	0.0003115979	-3	-3	-3	0	
17:56:03:507	47.46363	-122.3077	0.02139934	0.02139934	0	0	0	0	0	0	1.412523	2.218084	161.4907	2.648835E-05	0.1496478	0	0	0	-1000.553	0	0	0.0003115979	-3	-3	-3	0	
17:56:03:528	47.46363	-122.3077	0.0213863	0.0213863	0	0	0	0	0	0	1.412523	2.218084	161.4907	2.648835E-05	0.1496478	0	0	0	-1000.553	0	0	0.0002402178	-3	-3	-3	0	
17:56:03:575	47.46363	-122.3077	0.0213863	0.0213863	0	0	0	0	0	0	1.412523	2.218084	161.4907	2.648835E-05	0.1496478	0	0	0	-1000.553	0	0	0.0002402178	-3	-3	-3	0	
17:56:03:590	47.46363	-122.3077	0.0213863	0.0213863	0	0	0	0	0	0	1.412523	2.218084	161.4907	2.648835E-05	0.1496478	0	0	0	-1000.553	0	0	0.0002402178	-3	-3	-3	0	
17:56:03:607	47.46363	-122.3077	0.0213863	0.0213863	0	0	0	0	0	0	1.412523	2.218084	161.4907	2.648835E-05	0.1496478	0	0	0	-1000.553	0	0	0.0002402178	-3	-3	-3	0	
17:56:03:630	47.46363	-122.3077	0.0213863	0.0213863	0	0	0	0	0	0	1.412663	2.22163	161.4908	0.001437622	0.04482606	0	0	0	-1000.663	0	0	0.0002402178	-3	-3	-3	0	
17:56:03:674	47.46363	-122.3077	0.0213863	0.0213863	0	0	0	0	0	0	1.412663	2.22163	161.4908	0.001437622	0.04482606	0	0	0	-1000.663	0	0	0.0002402178	-3	-3	-3	0	
17:56:03:689	47.46363	-122.3077	0.0213863	0.0213863	0	0	0	0	0	0	1.412663	2.22163	161.4908	0.001437622	0.04482606	0	0	0	-1000.663	0	0	0.0002402178	-3	-3	-3	0	
17:56:03:708	47.46363	-122.3077	0.0213863	0.0213863	0	0	0	0	0	0	1.412663	2.22163	161.4908	0.001437622	0.04482606	0	0	0	-1000.663	0	0	0.0002402178	-3	-3	-3	0	
17:56:03:734	47.46363	-122.3077	0.02136617	0.02136617	0	0	0	0	0	0	1.412663	2.22163	161.4908	0.001437622	0.04482606	0	0	0	-1000.663	0	0	0.0001103009	-3	-3	-3	0	
17:56:03:782	47.46363	-122.3077	0.02136617	0.02136617	0	0	0	0	0	0	1.412663	2.22163	161.4908	0.001437622	0.04482606	0	0	0	-1000.663	0	0	0.0001103009	-3	-3	-3	0	
17:56:03:791	47.46363	-122.3077	0.02136617	0.02136617	0	0	0	0	0	0	1.412663	2.22163	161.4908	0.001437622	0.04482606	0	0	0	-1000.663	0	0	0.0001103009	-3	-3	-3	0	
17:56:03:812	47.46363	-122.3077	0.02136617	0.02136617	0	0	0	0	0	0	1.412663	2.22163	161.4908	0.001437622	0.04482606	0	0	0	-1000.663	0	0	0.0001103009	-3	-3	-3	0	
17:56:03:831	47.46363	-122.3077	0.02136617	0.02136617	0	0	0	0	0	0	1.412663	2.22163	161.4908	0.001437622	0.04482606	0	0	0	-1000.663	0	0	0.0001103009	-3	-3	-3	0	
17:56:03:876	47.46363	-122.3077	0.02136617	0.02136617	0	0	0	0	0	0	1.412633	2.220573	161.4908	-0.001001474	-0.03587082	0	0	0	-1000.526	0	0	0.0001103009	-3	-3	-3	0	
17:56:03:894	47.46363	-122.3077	0.02136617	0.02136617	0	0	0	0	0	0	1.412633	2.220573	161.4908	-0.001001474	-0.03587082	0	0	0	-1000.526	0	0	0.0001103009	-3	-3	-3	0	
17:56:03:927	47.46363	-122.3077	0.02136617	0.02136617	0	0	0	0	0	0	1.412633	2.220573	161.4908	-0.001001474	-0.03587082	0	0	0	-1000.526	0	0	0.0001103009	-3	-3	-3	0	
17:56:03:950	47.46363	-122.3077	0.02136473	0.02136473	0	0	0	0	0	0	1.412633	2.220573	161.4908	-0.001001474	-0.03587082	0	0	0	-1000.526	0	0	-3.816389E-05	-3	-3	-3	0	
17:56:03:983	47.46363	-122.3077	0.02136473	0.02136473	0	0	0	0	0	0	1.412633	2.220573	161.4908	-0.001001474	-0.03587082	0	0	0	-1000.526	0	0	-3.816389E-05	-3	-3	-3	0	
17:56:03:992	47.46363	-122.3077	0.02136473	0.02136473	0	0	0	0	0	0	1.412633	2.220573	161.4908	-0.001001474	-0.03587082	0	0	0	-1000.526	0	0	-3.816389E-05	-3	-3	-3	0	
17:56:04:11	47.46363	-122.3077	0.02136473	0.02136473	0	0	0	0	0	0	1.412633	2.220573	161.4908	-0.001001474	-0.03587082	0	0	0	-1000.526	0	0	-3.816389E-05	-3	-3	-3	0	
17:56:04:32	47.46363	-122.3077	0.02136473	0.02136473	0	0	0	0	0	0	1.412633	2.220573	161.4908	-0.001001474	-0.03587082	0	0	0	-1000.526	0	0	-3.816389E-05	-3	-3	-3	0	
17:56:04:69	47.46363	-122.3077	0.02136473	0.02136473	0	0	0	0	0	0	1.412633	2.220573	161.4908	-0.001001474	-0.03587082	0	0	0	-1000.526	0	0	-3.816389E-05	-3	-3	-3	0	
17:56:04:74	47.46363	-122.3077	0.02136473	0.02136473	0	0	0	0	0	0	1.412633	2.220573	161.4908	-0.001001474	-0.03587082	0	0	0	-1000.526	0	0	-3.816389E-05	-3	-3	-3	0	
17:56:04:94	47.46363	-122.3077	0.02136473	0.02136473	0	0	0	0	0	0	1.412633	2.220573	161.4908	-0.001001474	-0.03587082	0	0	0	-1000.526	0	0	-3.816389E-05	-3	-3	-3	0	
17:56:04:110	47.46363	-122.3077	0.02136473	0.02136473	0	0	0	0	0	0	1.412633	2.220573	161.4908	-0.001001474	-0.03587082	0	0	0	-1000.526	0	0	-3.816389E-05	-3	-3	-3	0	
17:56:04:131	47.46363	-122.3077	0.02136473	0.02136473	0	0	0	0	0	0	1.412633	2.220573	161.4908	-0.001001474	-0.03587082	0	0	0	-1000.526	0	0	-3.816389E-05	-3	-3	-3	0	
17:56:04:174	47.46363	-122.3077	0.02136516	0.02136516	0	0	0	0	0	0	1.412661	2.216755	161.4907	0.002957085	-0.08833838	0	0	0	-999.9933	0	0	-7.202006E-05	-3	-3	-3	0	
17:56:04:194	47.46363	-122.3077	0.02136516	0.02136516	0	0	0	0	0	0	1.412661	2.216755	161.4907	0.002957085	-0.08833838	0	0	0	-999.9933	0	0	-7.202006E-05	-3	-3	-3	0	
17:56:04:217	47.46363	-122.3077	0.02136516	0.02136516	0	0	0	0	0	0	1.412661	2.216755	161.4907	0.002957085	-0.08833838	0	0	0	-999.9933	0	0	-7.202006E-05	-3	-3	-3	0	
17:56:04:234	47.46363	-122.3077	0.02136516	0.02136516	0	0	0	0	0	0	1.412661	2.216755	161.4907	0.002957085	-0.08833838	0	0	0	-999.9933	0	0	-7.202006E-05	-3	-3	-3	0	
17:56:04:296	47.46363	-122.3077	0.02136516	0.02136516	0	0	0	0	0	0	1.412661	2.216755	161.4907	0.002957085	-0.08833838	0	0	0	-999.9933	0	0	-7.202006E-05	-3	-3	-3	0	
17:56:04:311	47.46363	-122.3077	0.02136516	0.02136516	0	0	0	0	0	0	1.412661	2.216755	161.4907	0.002957085	-0.08833838	0	0	0	-999.9933	0	0	-7.202006E-05	-3	-3	-3	0	
17:56:04:332	47.46363	-122.3077	0.02136516	0.02136516	0	0	0	0	0	0	1.412661	2.216755	161.4907	0.002957085	-0.08833838	0	0	0	-999.9933	0	0	-7.202006E-05	-3	-3	-3	0	
17:56:04:395	47.46363	-122.3077	0.02136516	0.02136516	0	0	0	0	0	0	1.412661	2.216755	161.4907	0.002957085	-0.08833838	0	0	0	-999.9933	0	0	-7.202006E-05	-3	-3	-3	0	
17:56:04:398	47.46363	-122.3077	0.02136516	0.02136516	0	0	0	0	0	0	1.412661	2.216755	161.4907	0.002957085	-0.08833838	0	0	0	-999.9933	0	0	-7.202006E-05	-3	-3	-3	0	
17:56:04:417	47.46363	-122.3077	0.02136516	0.02136516	0	0	0	0	0	0	1.412661	2.216755	161.4907	0.002957085	-0.08833838	0	0	0	-999.9933	0	0	-7.202006E-05	-3	-3	-3	0	
17:56:04:434	47.46363	-122.3077	0.02136516	0.02136516	0	0	0	0	0	0	1.412661	2.216755	161.4907	0.002957085	-0.08833838	0	0	0	-999.9933	0	0	-7.202006E-05	-3	-3	-3	0	
17:56:04:504	47.46363	-122.3077	0.02136516	0.02136516	0	0	0	0	0	0	1.412654	2.210755	161.4906	-0.0007035771	-0.1286606	0	0	0	-1000.322	0	0	-7.202006E-05	-3	-3	-3	0	
17:56:04:549	47.46363	-122.3077	0.02136516	0.02136516	0	0	0	0	0	0	1.412654	2.210755	161.4906	-0.0007035771	-0.1286606	0	0	0	-1000.322	0	0	-7.202006E-05	-3	-3	-3	0	
17:56:04:583	47.46363	-122.3077	0.02136516	0.02136516	0	0	0	0	0	0	1.412654	2.210755	161.4906	-0.0007035771	-0.1286606	0	0	0	-1000.322	0	0	-7.202006E-05	-3	-3	-3	0	
17:56:04:593	47.46363	-122.3077	0.02136516	0.02136516	0	0	0	0	0	0	1.412654	2.210755	161.4906	-0.0007035771	-0.1286606	0	0	0	-1000.322	0	0	-7.202006E-05	-3	-3	-3	0	
17:56:04:597	47.46363	-122.3077	0.02136703	0.02136703	0	0	0	0	0	0	1.412654	2.210755	161.4906	-0.0007035771	-0.1286606	0	0	0	-1000.322	0	0	-3.492573E-05	-3	-3	-3	0	
17:56:04:618	47.46363	-122.3077	0.02136703	0.02136703	0	0	0	0	0	0	1.412654	2.210755	161.4906	-0.0007035771	-0.1286606	0	0	0	-1000.322	0	0	-3.492573E-05	-3	-3	-3	0	
17:56:04:634	47.46363	-122.3077	0.02136703	0.02136703	0	0	0	0	0	0	1.412654	2.210755	161.4906	-0.0007035771	-0.1286606	0	0	0	-1000.322	0	0	-3.492573E-05	-3	-3	-3	0	
17:56:04:675	47.46363	-122.3077	0.02136703	0.02136703	0	0	0	0	0	0	1.412654	2.210755	161.4906	-0.0007035771	-0.1286606	0	0	0	-1000.322	0	0	-3.492573E-05	-3	-3	-3	0	
17:56:04:699	47.46363	-122.3077	0.02136703	0.02136703	0	0	0	0	0	0	1.412654	2.210755	161.4906	-0.0007035771	-0.1286606	0	0	0	-1000.322	0	0	-3.492573E-05	-3	-3	-3	0	
17:56:04:712	47.46363	-122.3077	0.02136703	0.02136703	0	0	0	0	0	0	1.412654	2.210755	161.4906	-0.0007035771	-0.1286606	0	0	0	-1000.322	0	0	-3.492573E-05	-3	-3	-3	0	
17:56:04:739	47.46363	-122.3077	0.02136703	0.02136703	0	0	0	0	0	0	1.412548	2.203186	161.4904	-0.002233448	-0.1566764	0	0	0	-999.9862	0	0	-3.492573E-05	-3	-3	-3	0	
17:56:04:779	47.46363	-122.3077	0.02136703	0.02136703	0	0	0	0	0	0	1.412548	2.203186	161.4904	-0.002233448	-0.1566764	0	0	0	-999.9862	0	0	-3.492573E-05	-3	-3	-3	0	
17:56:04:794	47.46363	-122.3077	0.02136703	0.02136703	0	0	0	0	0	0	1.412548	2.203186	161.4904	-0.002233448	-0.1566764	0	0	0	-999.9862	0	0	-3.492573E-05	-3	-3	-3	0	
17:56:04:819	47.46363	-122.3077	0.02137084	0.02137084	0	0	0	0	0	0	1.412548	2.203186	161.4904	-0.002233448	-0.1566764	0	0	0	-999.9862	0	0	-0.0001140455	-3	-3	-3	0	
17:56:04:837	47.46363	-122.3077	0.02137084	0.02137084	0	0	0	0	0	0	1.412548	2.203186	161.4904	-0.002233448	-0.1566764	0	0	0	-999.9862	0	0	-0.0001140455	-3	-3	-3	0	
17:56:04:879	47.46363	-122.3077	0.02137084	0.02137084	0	0	0	0	0	0	1.412404	2.194747	161.4902	-0.002811706	-0.1708922	0	0	0	-1000.301	0	0	-0.0001140455	-3	-3	-3	0	
17:56:04:903	47.46363	-122.3077	0.02137084	0.02137084	0	0	0	0	0	0	1.412404	2.194747	161.4902	-0.002811706	-0.1708922	0	0	0	-1000.301	0	0	-0.0001140455	-3	-3	-3	0	
17:56:04:917	47.46363	-122.3077	0.02137084	0.02137084	0	0	0	0	0	0	1.412404	2.194747	161.4902	-0.002811706	-0.1708922	0	0	0	-1000.301	0	0	-0.0001140455	-3	-3	-3	0	
17:56:04:937	47.46363	-122.3077	0.02137084	0.02137084	0	0	0	0	0	0	1.412404	2.194747	161.4902	-0.002811706	-0.1708922	0	0	0	-1000.301	0	0	-0.0001140455	-3	-3	-3	0	
17:56:05:31	47.46363	-122.3077	0.02137567	0.02137567	0	0	0	0	0	0	1.412404	2.194747	161.4902	-0.002811706	-0.1708922	0	0	0	-1000.301	0	0	-9.288568E-05	-3	-3	-3	0	
17:56:05:175	47.46363	-122.3077	0.02137567	0.02137567	0	0	0	0	0	0	1.412404	2.194747	161.4902	-0.002811706	-0.1708922	0	0	0	-1000.301	0	0	-9.288568E-05	-3	-3	-3	0	
17:56:05:178	47.46363	-122.3077	0.02137567	0.02137567	0	0	0	0	0	0	1.412404	2.194747	161.4902	-0.002811706	-0.1708922	0	0	0	-1000.301	0	0	-9.288568E-05	-3	-3	-3	0	
17:56:05:201	47.46363	-122.3077	0.02137567	0.02137567	0	0	0	0	0	0	1.412366	2.186088	161.4899	0.001869855	-0.171943	0	0	0	-1000.078	0	0	-9.288568E-05	-3	-3	-3	0	
17:56:05:214	47.46363	-122.3077	0.02137567	0.02137567	0	0	0	0	0	0	1.412366	2.186088	161.4899	0.001869855	-0.171943	0	0	0	-1000.078	0	0	-9.288568E-05	-3	-3	-3	0	
17:56:05:218	47.46363	-122.3077	0.02137567	0.02137567	0	0	0	0	0	0	1.412366	2.186088	161.4899	0.001869855	-0.171943	0	0	0	-1000.078	0	0	-9.288568E-05	-3	-3	-3	0	
17:56:05:224	47.46363	-122.3077	0.02138184	0.02138184	0	0	0	0	0	0	1.412366	2.186088	161.4899	0.001869855	-0.171943	0	0	0	-1000.078	0	0	-0.000157892	-3	-3	-3	0	
17:56:05:226	47.46363	-122.3077	0.02138184	0.02138184	0	0	0	0	0	0	1.412366	2.186088	161.4899	0.001869855	-0.171943	0	0	0	-1000.078	0	0	-0.000157892	-3	-3	-3	0	
17:56:05:229	47.46363	-122.3077	0.02138184	0.02138184	0	0	0	0	0	0	1.412366	2.186088	161.4899	0.001869855	-0.171943	0	0	0	-1000.078	0	0	-0.000157892	-3	-3	-3	0	
17:56:05:233	47.46363	-122.3077	0.02138184	0.02138184	0	0	0	0	0	0	1.412366	2.186088	161.4899	0.001869855	-0.171943	0	0	0	-1000.078	0	0	-0.000157892	-3	-3	-3	0	
17:56:05:236	47.46363	-122.3077	0.02138184	0.02138184	0	0	0	0	0	0	1.412366	2.186088	161.4899	0.001869855	-0.171943	0	0	0	-1000.078	0	0	-0.000157892	-3	-3	-3	0	
17:56:05:238	47.46363	-122.3077	0.02138184	0.02138184	0	0	0	0	0	0	1.412366	2.186088	161.4899	0.001869855	-0.171943	0	0	0	-1000.078	0	0	-0.000157892	-3	-3	-3	0	
17:56:05:241	47.46363	-122.3077	0.02138184	0.02138184	0	0	0	0	0	0	1.412366	2.186088	161.4899	0.001869855	-0.171943	0	0	0	-1000.078	0	0	-0.000157892	-3	-3	-3	0	
17:56:05:321	47.46363	-122.3077	0.02138184	0.02138184	0	0	0	0	0	0	1.412366	2.186088	161.4899	0.001869855	-0.171943	0	0	0	-1000.078	0	0	-0.000157892	-3	-3	-3	0	
17:56:05:355	47.46363	-122.3077	0.02138184	0.02138184	0	0	0	0	0	0	1.412447	2.177827	161.4897	0.003704039	-0.1611071	0	0	0	-1000.099	0	0	-0.000157892	-3	-3	-3	0	
17:56:05:360	47.46363	-122.3077	0.02138184	0.02138184	0	0	0	0	0	0	1.412447	2.177827	161.4897	0.003704039	-0.1611071	0	0	0	-1000.099	0	0	-0.000157892	-3	-3	-3	0	
17:56:05:385	47.46363	-122.3077	0.02138184	0.02138184	0	0	0	0	0	0	1.412447	2.177827	161.4897	0.003704039	-0.1611071	0	0	0	-1000.099	0	0	-0.000157892	-3	-3	-3	0	
17:56:05:401	47.46363	-122.3077	0.02138184	0.02138184	0	0	0	0	0	0	1.412447	2.177827	161.4897	0.003704039	-0.1611071	0	0	0	-1000.099	0	0	-0.000157892	-3	-3	-3	0	
17:56:05:421	47.46363	-122.3077	0.02138184	0.02138184	0	0	0	0	0	0	1.412447	2.177827	161.4897	0.003704039	-0.1611071	0	0	0	-1000.099	0	0	-0.000157892	-3	-3	-3	0	
17:56:05:439	47.46363	-122.3077	0.021387	0.021387	0	0	0	0	0	0	1.412447	2.177827	161.4897	0.003704039	-0.1611071	0	0	0	-1000.099	0	0	-0.000109991	-3	-3	-3	0	
17:56:05:518	47.46363	-122.3077	0.021387	0.021387	0	0	0	0	0	0	1.412576	2.170484	161.4896	0.004393117	-0.1400439	0	0	0	-1000.323	0	0	-0.000109991	-3	-3	-3	0	
17:56:05:557	47.46363	-122.3077	0.021387	0.021387	0	0	0	0	0	0	1.412576	2.170484	161.4896	0.004393117	-0.1400439	0	0	0	-1000.323	0	0	-0.000109991	-3	-3	-3	0	
17:56:05:560	47.46363	-122.3077	0.021387	0.021387	0	0	0	0	0	0	1.412576	2.170484	161.4896	0.004393117	-0.1400439	0	0	0	-1000.323	0	0	-0.000109991	-3	-3	-3	0	
17:56:05:583	47.46363	-122.3077	0.021387	0.021387	0	0	0	0	0	0	1.412576	2.170484	161.4896	0.004393117	-0.1400439	0	0	0	-1000.323	0	0	-0.000109991	-3	-3	-3	0	
17:56:05:604	47.46363	-122.3077	0.021387	0.021387	0	0	0	0	0	0	1.412576	2.170484	161.4896	0.004393117	-0.1400439	0	0	0	-1000.323	0	0	-0.000109991	-3	-3	-3	0	
17:56:05:637	47.46363	-122.3077	0.021387	0.021387	0	0	0	0	0	0	1.412576	2.170484	161.4896	0.004393117	-0.1400439	0	0	0	-1000.323	0	0	-0.000109991	-3	-3	-3	0	
17:56:05:641	47.46363	-122.3077	0.02139087	0.02139087	0	0	0	0	0	0	1.412576	2.170484	161.4896	0.004393117	-0.1400439	0	0	0	-1000.323	0	0	-8.597971E-05	-3	-3	-3	0	
17:56:05:681	47.46363	-122.3077	0.02139087	0.02139087	0	0	0	0	0	0	1.412721	2.164489	161.4894	0.004652098	-0.1121459	0	0	0	-999.9313	0	0	-8.597971E-05	-3	-3	-3	0	
17:56:05:700	47.46363	-122.3077	0.02139087	0.02139087	0	0	0	0	0	0	1.412721	2.164489	161.4894	0.004652098	-0.1121459	0	0	0	-999.9313	0	0	-8.597971E-05	-3	-3	-3	0	
17:56:05:719	47.46363	-122.3077	0.02139087	0.02139087	0	0	0	0	0	0	1.412721	2.164489	161.4894	0.004652098	-0.1121459	0	0	0	-999.9313	0	0	-8.597971E-05	-3	-3	-3	0	
17:56:05:741	47.46363	-122.3077	0.02139087	0.02139087	0	0	0	0	0	0	1.412721	2.164489	161.4894	0.004652098	-0.1121459	0	0	0	-999.9313	0	0	-8.597971E-05	-3	-3	-3	0	
17:56:05:793	47.46363	-122.3077	0.02139087	0.02139087	0	0	0	0	0	0	1.412766	2.16007	161.4893	0.0001954021	-0.07971892	0	0	0	-1000.057	0	0	-8.597971E-05	-3	-3	-3	0	
17:56:05:802	47.46363	-122.3077	0.02139087	0.02139087	0	0	0	0	0	0	1.412766	2.16007	161.4893	0.0001954021	-0.07971892	0	0	0	-1000.057	0	0	-8.597971E-05	-3	-3	-3	0	
17:56:05:821	47.46363	-122.3077	0.02139087	0.02139087	0	0	0	0	0	0	1.412766	2.16007	161.4893	0.0001954021	-0.07971892	0	0	0	-1000.057	0	0	-8.597971E-05	-3	-3	-3	0	
17:56:05:847	47.46363	-122.3077	0.02139869	0.02139869	0	0	0	0	0	0	1.412766	2.16007	161.4893	0.0001954021	-0.07971892	0	0	0	-1000.057	0	0	-0.0001918167	-3	-3	-3	0	
17:56:05:885	47.46363	-122.3077	0.02139869	0.02139869	0	0	0	0	0	0	1.412766	2.16007	161.4893	0.0001954021	-0.07971892	0	0	0	-1000.057	0	0	-0.0001918167	-3	-3	-3	0	
17:56:05:907	47.46363	-122.3077	0.02139869	0.02139869	0	0	0	0	0	0	1.412712	2.1574	161.4892	-0.001297753	-0.04417916	0	0	0	-1000.108	0	0	-0.0001918167	-3	-3	-3	0	
17:56:05:921	47.46363	-122.3077	0.02139869	0.02139869	0	0	0	0	0	0	1.412712	2.1574	161.4892	-0.001297753	-0.04417916	0	0	0	-1000.108	0	0	-0.0001918167	-3	-3	-3	0	
17:56:05:945	47.46363	-122.3077	0.02139869	0.02139869	0	0	0	0	0	0	1.412712	2.1574	161.4892	-0.001297753	-0.04417916	0	0	0	-1000.108	0	0	-0.0001918167	-3	-3	-3	0	
17:56:05:986	47.46363	-122.3077	0.02139869	0.02139869	0	0	0	0	0	0	1.412712	2.1574	161.4892	-0.001297753	-0.04417916	0	0	0	-1000.108	0	0	-0.0001918167	-3	-3	-3	0	
17:56:06:17	47.46363	-122.3077	0.02139869	0.02139869	0	0	0	0	0	0	1.412712	2.1574	161.4892	-0.001297753	-0.04417916	0	0	0	-1000.108	0	0	-0.0001918167	-3	-3	-3	0	
17:56:06:23	47.46363	-122.3077	0.02139869	0.02139869	0	0	0	0	0	0	1.412712	2.1574	161.4892	-0.001297753	-0.04417916	0	0	0	-1000.108	0	0	-0.0001918167	-3	-3	-3	0	
17:56:06:50	47.46363	-122.3077	0.02140522	0.02140522	0	0	0	0	0	0	1.412626	2.156522	161.4892	-0.001807126	-0.008936292	0	0	0	-1000.057	0	0	-1.641401E-05	-3	-3	-3	0	
17:56:06:80	47.46363	-122.3077	0.02140522	0.02140522	0	0	0	0	0	0	1.412626	2.156522	161.4892	-0.001807126	-0.008936292	0	0	0	-1000.057	0	0	-1.641401E-05	-3	-3	-3	0	
17:56:06:85	47.46363	-122.3077	0.02140522	0.02140522	0	0	0	0	0	0	1.412626	2.156522	161.4892	-0.001807126	-0.008936292	0	0	0	-1000.057	0	0	-1.641401E-05	-3	-3	-3	0	
17:56:06:105	47.46363	-122.3077	0.02140522	0.02140522	0	0	0	0	0	0	1.412626	2.156522	161.4892	-0.001807126	-0.008936292	0	0	0	-1000.057	0	0	-1.641401E-05	-3	-3	-3	0	
17:56:06:122	47.46363	-122.3077	0.02140522	0.02140522	0	0	0	0	0	0	1.412626	2.156522	161.4892	-0.001807126	-0.008936292	0	0	0	-1000.057	0	0	-1.641401E-05	-3	-3	-3	0	
17:56:06:147	47.46363	-122.3077	0.02140522	0.02140522	0	0	0	0	0	0	1.412626	2.156522	161.4892	-0.001807126	-0.008936292	0	0	0	-1000.057	0	0	-1.641401E-05	-3	-3	-3	0	
17:56:06:192	47.46363	-122.3077	0.02140522	0.02140522	0	0	0	0	0	0	1.41253	2.156886	161.4892	-0.001990694	0.005912214	0	0	0	-999.9151	0	0	-1.641401E-05	-3	-3	-3	0	
17:56:06:204	47.46363	-122.3077	0.02140522	0.02140522	0	0	0	0	0	0	1.41253	2.156886	161.4892	-0.001990694	0.005912214	0	0	0	-999.9151	0	0	-1.641401E-05	-3	-3	-3	0	
17:56:06:225	47.46363	-122.3077	0.02140522	0.02140522	0	0	0	0	0	0	1.41253	2.156886	161.4892	-0.001990694	0.005912214	0	0	0	-999.9151	0	0	-1.641401E-05	-3	-3	-3	0	
17:56:06:243	47.46363	-122.3077	0.02140522	0.02140522	0	0	0	0	0	0	1.41253	2.156886	161.4892	-0.001990694	0.005912214	0	0	0	-999.9151	0	0	-1.641401E-05	-3	-3	-3	0	
17:56:06:307	47.46363	-122.3077	0.02140538	0.02140538	0	0	0	0	0	0	1.412421	2.157018	161.4892	-0.002219432	0.001631633	0	0	0	-1000.133	0	0	-2.506084E-05	-3	-3	-3	0	
17:56:06:322	47.46363	-122.3077	0.02140538	0.02140538	0	0	0	0	0	0	1.412421	2.157018	161.4892	-0.002219432	0.001631633	0	0	0	-1000.133	0	0	-2.506084E-05	-3	-3	-3	0	
17:56:06:346	47.46363	-122.3077	0.02140538	0.02140538	0	0	0	0	0	0	1.412421	2.157018	161.4892	-0.002219432	0.001631633	0	0	0	-1000.133	0	0	-2.506084E-05	-3	-3	-3	0	
17:56:06:390	47.46363	-122.3077	0.02140538	0.02140538	0	0	0	0	0	0	1.412421	2.157018	161.4892	-0.002219432	0.001631633	0	0	0	-1000.133	0	0	-2.506084E-05	-3	-3	-3	0	
17:56:06:428	47.46363	-122.3077	0.02140538	0.02140538	0	0	0	0	0	0	1.412303	2.15741	161.4892	-0.002388438	0.01585953	0	0	0	-1000.149	0	0	-2.506084E-05	-3	-3	-3	0	
17:56:06:435	47.46363	-122.3077	0.02140538	0.02140538	0	0	0	0	0	0	1.412303	2.15741	161.4892	-0.002388438	0.01585953	0	0	0	-1000.149	0	0	-2.506084E-05	-3	-3	-3	0	
17:56:06:445	47.46363	-122.3077	0.02140538	0.02140538	0	0	0	0	0	0	1.412303	2.15741	161.4892	-0.002388438	0.01585953	0	0	0	-1000.149	0	0	-2.506084E-05	-3	-3	-3	0	
17:56:06:507	47.46363	-122.3077	0.02140667	0.02140667	0	0	0	0	0	0	1.412303	2.15741	161.4892	-0.002388438	0.01585953	0	0	0	-1000.149	0	0	3.263518E-06	-3	-3	-3	0	
17:56:06:522	47.46363	-122.3077	0.02140667	0.02140667	0	0	0	0	0	0	1.412303	2.15741	161.4892	-0.002388438	0.01585953	0	0	0	-1000.149	0	0	3.263518E-06	-3	-3	-3	0	
17:56:06:547	47.46363	-122.3077	0.02140667	0.02140667	0	0	0	0	0	0	1.412166	2.15802	161.4892	-0.00281678	0.01098261	0	0	0	-1000.123	0	0	3.263518E-06	-3	-3	-3	0	
17:56:06:585	47.46363	-122.3077	0.02140667	0.02140667	0	0	0	0	0	0	1.412166	2.15802	161.4892	-0.00281678	0.01098261	0	0	0	-1000.123	0	0	3.263518E-06	-3	-3	-3	0	
17:56:06:604	47.46363	-122.3077	0.02140667	0.02140667	0	0	0	0	0	0	1.412166	2.15802	161.4892	-0.00281678	0.01098261	0	0	0	-1000.123	0	0	3.263518E-06	-3	-3	-3	0	
17:56:06:624	47.46363	-122.3077	0.02140667	0.02140667	0	0	0	0	0	0	1.412166	2.15802	161.4892	-0.00281678	0.01098261	0	0	0	-1000.123	0	0	3.263518E-06	-3	-3	-3	0	
17:56:06:645	47.46363	-122.3077	0.02140667	0.02140667	0	0	0	0	0	0	1.412166	2.15802	161.4892	-0.00281678	0.01098261	0	0	0	-1000.123	0	0	3.263518E-06	-3	-3	-3	0	
17:56:06:687	47.46363	-122.3077	0.02140667	0.02140667	0	0	0	0	0	0	1.412144	2.158401	161.4893	0.002004817	0.006359728	0	0	0	-1000.3	0	0	3.263518E-06	-3	-3	-3	0	
17:56:06:707	47.46363	-122.3077	0.0214052	0.0214052	0	0	0	0	0	0	1.412144	2.158401	161.4893	0.002004817	0.006359728	0	0	0	-1000.3	0	0	-3.370531E-06	-3	-3	-3	0	
17:56:06:726	47.46363	-122.3077	0.0214052	0.0214052	0	0	0	0	0	0	1.412144	2.158401	161.4893	0.002004817	0.006359728	0	0	0	-1000.3	0	0	-3.370531E-06	-3	-3	-3	0	
17:56:06:749	47.46363	-122.3077	0.0214052	0.0214052	0	0	0	0	0	0	1.412144	2.158401	161.4893	0.002004817	0.006359728	0	0	0	-1000.3	0	0	-3.370531E-06	-3	-3	-3	0	
17:56:06:790	47.46363	-122.3077	0.0214052	0.0214052	0	0	0	0	0	0	1.412311	2.158451	161.4893	0.001733382	-0.0005791333	0	0	0	-999.9673	0	0	-3.370531E-06	-3	-3	-3	0	
17:56:06:809	47.46363	-122.3077	0.0214052	0.0214052	0	0	0	0	0	0	1.412311	2.158451	161.4893	0.001733382	-0.0005791333	0	0	0	-999.9673	0	0	-3.370531E-06	-3	-3	-3	0	
17:56:06:827	47.46363	-122.3077	0.0214052	0.0214052	0	0	0	0	0	0	1.412311	2.158451	161.4893	0.001733382	-0.0005791333	0	0	0	-999.9673	0	0	-3.370531E-06	-3	-3	-3	0	
17:56:06:850	47.46363	-122.3077	0.0214052	0.0214052	0	0	0	0	0	0	1.412311	2.158451	161.4893	0.001733382	-0.0005791333	0	0	0	-999.9673	0	0	-3.370531E-06	-3	-3	-3	0	
17:56:06:887	47.46363	-122.3077	0.0214052	0.0214052	0	0	0	0	0	0	1.412311	2.158451	161.4893	0.001733382	-0.0005791333	0	0	0	-999.9673	0	0	-3.370531E-06	-3	-3	-3	0	
17:56:06:907	47.46363	-122.3077	0.0214039	0.0214039	0	0	0	0	0	0	1.412311	2.158451	161.4893	0.001733382	-0.0005791333	0	0	0	-999.9673	0	0	-1.453333E-05	-3	-3	-3	0	
17:56:06:933	47.46363	-122.3077	0.0214039	0.0214039	0	0	0	0	0	0	1.412311	2.158451	161.4893	0.001733382	-0.0005791333	0	0	0	-999.9673	0	0	-1.453333E-05	-3	-3	-3	0	
17:56:06:951	47.46363	-122.3077	0.0214039	0.0214039	0	0	0	0	0	0	1.412282	2.1591	161.4893	-0.00111753	0.01136307	0	0	0	-1000.489	0	0	-1.453333E-05	-3	-3	-3	0	
17:56:06:990	47.46363	-122.3077	0.0214039	0.0214039	0	0	0	0	0	0	1.412282	2.1591	161.4893	-0.00111753	0.01136307	0	0	0	-1000.489	0	0	-1.453333E-05	-3	-3	-3	0	
17:56:07:11	47.46363	-122.3077	0.0214039	0.0214039	0	0	0	0	0	0	1.412282	2.1591	161.4893	-0.00111753	0.01136307	0	0	0	-1000.489	0	0	-1.453333E-05	-3	-3	-3	0	
17:56:07:28	47.46363	-122.3077	0.0214039	0.0214039	0	0	0	0	0	0	1.412282	2.1591	161.4893	-0.00111753	0.01136307	0	0	0	-1000.489	0	0	-1.453333E-05	-3	-3	-3	0	
17:56:07:62	47.46363	-122.3077	0.0214039	0.0214039	0	0	0	0	0	0	1.412282	2.1591	161.4893	-0.00111753	0.01136307	0	0	0	-1000.489	0	0	-1.453333E-05	-3	-3	-3	0	
17:56:07:91	47.46363	-122.3077	0.0214039	0.0214039	0	0	0	0	0	0	1.412511	2.15937	161.4893	0.005859129	0.003524715	0	0	0	-1000.096	0	0	-1.453333E-05	-3	-3	-3	0	
17:56:07:102	47.46363	-122.3077	0.0214039	0.0214039	0	0	0	0	0	0	1.412511	2.15937	161.4893	0.005859129	0.003524715	0	0	0	-1000.096	0	0	-1.453333E-05	-3	-3	-3	0	
17:56:07:109	47.46363	-122.3077	0.02140236	0.02140236	0	0	0	0	0	0	1.412511	2.15937	161.4893	0.005859129	0.003524715	0	0	0	-1000.096	0	0	5.22495E-05	-3	-3	-3	0	
17:56:07:129	47.46363	-122.3077	0.02140236	0.02140236	0	0	0	0	0	0	1.412511	2.15937	161.4893	0.005859129	0.003524715	0	0	0	-1000.096	0	0	5.22495E-05	-3	-3	-3	0	
17:56:07:150	47.46363	-122.3077	0.02140236	0.02140236	0	0	0	0	0	0	1.412511	2.15937	161.4893	0.005859129	0.003524715	0	0	0	-1000.096	0	0	5.22495E-05	-3	-3	-3	0	
17:56:07:191	47.46363	-122.3077	0.02140236	0.02140236	0	0	0	0	0	0	1.412511	2.15937	161.4893	0.005859129	0.003524715	0	0	0	-1000.096	0	0	5.22495E-05	-3	-3	-3	0	
17:56:07:211	47.46363	-122.3077	0.02140236	0.02140236	0	0	0	0	0	0	1.41258	2.15979	161.4893	0.0003889792	0.01620036	0	0	0	-1000.555	0	0	5.22495E-05	-3	-3	-3	0	
17:56:07:232	47.46363	-122.3077	0.02140236	0.02140236	0	0	0	0	0	0	1.41258	2.15979	161.4893	0.0003889792	0.01620036	0	0	0	-1000.555	0	0	5.22495E-05	-3	-3	-3	0	
17:56:07:259	47.46363	-122.3077	0.02140236	0.02140236	0	0	0	0	0	0	1.41258	2.15979	161.4893	0.0003889792	0.01620036	0	0	0	-1000.555	0	0	5.22495E-05	-3	-3	-3	0	
17:56:07:310	47.46363	-122.3077	0.02140236	0.02140236	0	0	0	0	0	0	1.41258	2.15979	161.4893	0.0003889792	0.01620036	0	0	0	-1000.555	0	0	5.22495E-05	-3	-3	-3	0	
17:56:07:330	47.46363	-122.3077	0.02140217	0.02140217	0	0	0	0	0	0	1.41258	2.15979	161.4893	0.0003889792	0.01620036	0	0	0	-1000.555	0	0	1.472885E-05	-3	-3	-3	0	
17:56:07:350	47.46363	-122.3077	0.02140217	0.02140217	0	0	0	0	0	0	1.412656	2.16029	161.4893	0.003721092	0.00762711	0	0	0	-1000.496	0	0	1.472885E-05	-3	-3	-3	0	
17:56:07:393	47.46363	-122.3077	0.02140217	0.02140217	0	0	0	0	0	0	1.412656	2.16029	161.4893	0.003721092	0.00762711	0	0	0	-1000.496	0	0	1.472885E-05	-3	-3	-3	0	
17:56:07:411	47.46363	-122.3077	0.02140217	0.02140217	0	0	0	0	0	0	1.412656	2.16029	161.4893	0.003721092	0.00762711	0	0	0	-1000.496	0	0	1.472885E-05	-3	-3	-3	0	
17:56:07:432	47.46363	-122.3077	0.02140217	0.02140217	0	0	0	0	0	0	1.412656	2.16029	161.4893	0.003721092	0.00762711	0	0	0	-1000.496	0	0	1.472885E-05	-3	-3	-3	0	
17:56:07:450	47.46363	-122.3077	0.02140217	0.02140217	0	0	0	0	0	0	1.412656	2.16029	161.4893	0.003721092	0.00762711	0	0	0	-1000.496	0	0	1.472885E-05	-3	-3	-3	0	
17:56:07:516	47.46363	-122.3077	0.02140217	0.02140217	0	0	0	0	0	0	1.41276	2.160304	161.4893	-0.002113875	-0.001973322	0	0	0	-1000.057	0	0	1.472885E-05	-3	-3	-3	0	
17:56:07:530	47.46363	-122.3077	0.0214027	0.0214027	0	0	0	0	0	0	1.41276	2.160304	161.4893	-0.002113875	-0.001973322	0	0	0	-1000.057	0	0	-7.42152E-05	-3	-3	-3	0	
17:56:07:551	47.46363	-122.3077	0.0214027	0.0214027	0	0	0	0	0	0	1.41276	2.160304	161.4893	-0.002113875	-0.001973322	0	0	0	-1000.057	0	0	-7.42152E-05	-3	-3	-3	0	
17:56:07:593	47.46363	-122.3077	0.0214027	0.0214027	0	0	0	0	0	0	1.41276	2.160304	161.4893	-0.002113875	-0.001973322	0	0	0	-1000.057	0	0	-7.42152E-05	-3	-3	-3	0	
17:56:07:614	47.46363	-122.3077	0.0214027	0.0214027	0	0	0	0	0	0	1.412571	2.160785	161.4893	-0.0003768644	0.006933852	0	0	0	-999.7189	0	0	-7.42152E-05	-3	-3	-3	0	
17:56:07:630	47.46363	-122.3077	0.0214027	0.0214027	0	0	0	0	0	0	1.412571	2.160785	161.4893	-0.0003768644	0.006933852	0	0	0	-999.7189	0	0	-7.42152E-05	-3	-3	-3	0	
17:56:07:654	47.46363	-122.3077	0.0214027	0.0214027	0	0	0	0	0	0	1.412571	2.160785	161.4893	-0.0003768644	0.006933852	0	0	0	-999.7189	0	0	-7.42152E-05	-3	-3	-3	0	
17:56:07:690	47.46363	-122.3077	0.0214027	0.0214027	0	0	0	0	0	0	1.412571	2.160785	161.4893	-0.0003768644	0.006933852	0	0	0	-999.7189	0	0	-7.42152E-05	-3	-3	-3	0	
17:56:07:730	47.46363	-122.3077	0.0214027	0.0214027	0	0	0	0	0	0	1.412571	2.160785	161.4893	-0.0003768644	0.006933852	0	0	0	-999.7189	0	0	-7.42152E-05	-3	-3	-3	0	
17:56:07:735	47.46363	-122.3077	0.02140089	0.02140089	0	0	0	0	0	0	1.412571	2.160785	161.4893	-0.0003768644	0.006933852	0	0	0	-999.7189	0	0	5.621148E-05	-3	-3	-3	0	
17:56:07:754	47.46363	-122.3077	0.02140089	0.02140089	0	0	0	0	0	0	1.412695	2.160791	161.4893	0.001219156	-0.002027099	0	0	0	-1000.723	0	0	5.621148E-05	-3	-3	-3	0	
17:56:07:792	47.46363	-122.3077	0.02140089	0.02140089	0	0	0	0	0	0	1.412695	2.160791	161.4893	0.001219156	-0.002027099	0	0	0	-1000.723	0	0	5.621148E-05	-3	-3	-3	0	
17:56:07:812	47.46363	-122.3077	0.02140089	0.02140089	0	0	0	0	0	0	1.412695	2.160791	161.4893	0.001219156	-0.002027099	0	0	0	-1000.723	0	0	5.621148E-05	-3	-3	-3	0	
17:56:07:831	47.46363	-122.3077	0.02140089	0.02140089	0	0	0	0	0	0	1.412695	2.160791	161.4893	0.001219156	-0.002027099	0	0	0	-1000.723	0	0	5.621148E-05	-3	-3	-3	0	
17:56:07:854	47.46363	-122.3077	0.02140089	0.02140089	0	0	0	0	0	0	1.412695	2.160791	161.4893	0.001219156	-0.002027099	0	0	0	-1000.723	0	0	5.621148E-05	-3	-3	-3	0	
17:56:07:896	47.46363	-122.3077	0.02140089	0.02140089	0	0	0	0	0	0	1.412652	2.161193	161.4893	-0.001304952	0.005226849	0	0	0	-999.9734	0	0	5.621148E-05	-3	-3	-3	0	
17:56:07:911	47.46363	-122.3077	0.02140089	0.02140089	0	0	0	0	0	0	1.412652	2.161193	161.4893	-0.001304952	0.005226849	0	0	0	-999.9734	0	0	5.621148E-05	-3	-3	-3	0	
17:56:07:931	47.46363	-122.3077	0.02140089	0.02140089	0	0	0	0	0	0	1.412652	2.161193	161.4893	-0.001304952	0.005226849	0	0	0	-999.9734	0	0	5.621148E-05	-3	-3	-3	0	
17:56:07:953	47.46363	-122.3077	0.02140212	0.02140212	0	0	0	0	0	0	1.412652	2.161193	161.4893	-0.001304952	0.005226849	0	0	0	-999.9734	0	0	2.760291E-05	-3	-3	-3	0	
17:56:08:0	47.46363	-122.3077	0.02140212	0.02140212	0	0	0	0	0	0	1.412559	2.161525	161.4893	-0.001995447	0.013125	0	0	0	-1000.138	0	0	2.760291E-05	-3	-3	-3	0	
17:56:08:17	47.46363	-122.3077	0.02140212	0.02140212	0	0	0	0	0	0	1.412559	2.161525	161.4893	-0.001995447	0.013125	0	0	0	-1000.138	0	0	2.760291E-05	-3	-3	-3	0	
17:56:08:34	47.46363	-122.3077	0.02140212	0.02140212	0	0	0	0	0	0	1.412559	2.161525	161.4893	-0.001995447	0.013125	0	0	0	-1000.138	0	0	2.760291E-05	-3	-3	-3	0	
17:56:08:55	47.46363	-122.3077	0.02140212	0.02140212	0	0	0	0	0	0	1.412559	2.161525	161.4893	-0.001995447	0.013125	0	0	0	-1000.138	0	0	2.760291E-05	-3	-3	-3	0	
17:56:08:91	47.46363	-122.3077	0.02140212	0.02140212	0	0	0	0	0	0	1.412559	2.161525	161.4893	-0.001995447	0.013125	0	0	0	-1000.138	0	0	2.760291E-05	-3	-3	-3	0	
17:56:08:97	47.46363	-122.3077	0.02140212	0.02140212	0	0	0	0	0	0	1.412559	2.161525	161.4893	-0.001995447	0.013125	0	0	0	-1000.138	0	0	2.760291E-05	-3	-3	-3	0	
17:56:08:116	47.46363	-122.3077	0.02140212	0.02140212	0	0	0	0	0	0	1.412559	2.161525	161.4893	-0.001995447	0.013125	0	0	0	-1000.138	0	0	2.760291E-05	-3	-3	-3	0	
17:56:08:150	47.46363	-122.3077	0.02140212	0.02140212	0	0	0	0	0	0	1.412455	2.161775	161.4893	-0.002114975	0.002430634	0	0	0	-1000.126	0	0	2.760291E-05	-3	-3	-3	0	
17:56:08:158	47.46363	-122.3077	0.02140418	0.02140418	0	0	0	0	0	0	1.412455	2.161775	161.4893	-0.002114975	0.002430634	0	0	0	-1000.126	0	0	-2.777146E-06	-3	-3	-3	0	
17:56:08:199	47.46363	-122.3077	0.02140418	0.02140418	0	0	0	0	0	0	1.412455	2.161775	161.4893	-0.002114975	0.002430634	0	0	0	-1000.126	0	0	-2.777146E-06	-3	-3	-3	0	
17:56:08:218	47.46363	-122.3077	0.02140418	0.02140418	0	0	0	0	0	0	1.412455	2.161775	161.4893	-0.002114975	0.002430634	0	0	0	-1000.126	0	0	-2.777146E-06	-3	-3	-3	0	
17:56:08:234	47.46363	-122.3077	0.02140418	0.02140418	0	0	0	0	0	0	1.412455	2.161775	161.4893	-0.002114975	0.002430634	0	0	0	-1000.126	0	0	-2.777146E-06	-3	-3	-3	0	
17:56:08:255	47.46363	-122.3077	0.02140418	0.02140418	0	0	0	0	0	0	1.412455	2.161775	161.4893	-0.002114975	0.002430634	0	0	0	-1000.126	0	0	-2.777146E-06	-3	-3	-3	0	
17:56:08:317	47.46363	-122.3077	0.02140418	0.02140418	0	0	0	0	0	0	1.420607	2.160337	161.4741	0.3496184	-0.04651255	-0.4029565	23.48481	-5.135009	-998.8425	0	0	-2.777146E-06	-3	-3	-3	0	
17:56:08:337	47.46363	-122.3077	0.02140418	0.02140418	0	0	0	0	0	0	1.420607	2.160337	161.4741	0.3496184	-0.04651255	-0.4029565	23.48481	-5.135009	-998.8425	0	0	-2.777146E-06	-3	-3	-3	0	
17:56:08:358	47.46363	-122.3077	0.02140418	0.02140418	0	0	0	0	0	0	1.420607	2.160337	161.4741	0.3496184	-0.04651255	-0.4029565	23.48481	-5.135009	-998.8425	0	0	-2.777146E-06	-3	-3	-3	0	
17:56:08:401	47.46363	-122.3077	0.02140387	0.02140387	0	0	0	0	0	0	1.464641	2.162382	161.4394	1.056365	0.04671823	-0.7849683	32.03512	-13.93992	-1000.163	0	0	1.349616E-05	-3	-3	-3	0	
17:56:08:430	47.46363	-122.3077	0.02140387	0.02140387	0	0	0	0	0	0	1.464641	2.162382	161.4394	1.056365	0.04671823	-0.7849683	32.03512	-13.93992	-1000.163	0	0	1.349616E-05	-3	-3	-3	0	
17:56:08:435	47.46363	-122.3077	0.02140387	0.02140387	0	0	0	0	0	0	1.464641	2.162382	161.4394	1.056365	0.04671823	-0.7849683	32.03512	-13.93992	-1000.163	0	0	1.349616E-05	-3	-3	-3	0	
17:56:08:456	47.46363	-122.3077	0.02140387	0.02140387	0	0	0	0	0	0	1.464641	2.162382	161.4394	1.056365	0.04671823	-0.7849683	32.03512	-13.93992	-1000.163	0	0	1.349616E-05	-3	-3	-3	0	
17:56:08:518	47.46363	-122.3077	0.02140387	0.02140387	0	0	0	0	0	0	1.464641	2.162382	161.4394	1.056365	0.04671823	-0.7849683	32.03512	-13.93992	-1000.163	0	0	1.349616E-05	-3	-3	-3	0	
17:56:08:539	47.46363	-122.3077	0.02140387	0.02140387	0	0	0	0	0	0	1.528646	2.169198	161.3863	1.363639	0.127914	-1.149001	32.36818	-19.41568	-998.7822	0	0	1.349616E-05	-3	-3	-3	0	
17:56:08:559	47.46363	-122.3077	0.02140387	0.02140387	0	0	0	0	0	0	1.528646	2.169198	161.3863	1.363639	0.127914	-1.149001	32.36818	-19.41568	-998.7822	0	0	1.349616E-05	-3	-3	-3	0	
17:56:08:600	47.46363	-122.3077	0.02139413	0.02139413	0	0	0	0	0	0	1.528646	2.169198	161.3863	1.363639	0.127914	-1.149001	32.36818	-19.41568	-998.7822	0.007013688	-0.0123902	0.0003407423	-3	-3	-3	0	
17:56:08:633	47.46363	-122.3077	0.02139413	0.02139413	0	0	0	0	0	0	1.528646	2.169198	161.3863	1.363639	0.127914	-1.149001	32.36818	-19.41568	-998.7822	0.007013688	-0.0123902	0.0003407423	-3	-3	-3	0	
17:56:08:636	47.46363	-122.3077	0.02139413	0.02139413	0	0	0	0	0	0	1.528646	2.169198	161.3863	1.363639	0.127914	-1.149001	32.36818	-19.41568	-998.7822	0.007013688	-0.0123902	0.0003407423	-3	-3	-3	0	
17:56:08:655	47.46363	-122.3077	0.02139413	0.02139413	0	0	0	0	0	0	1.592988	2.180009	161.3156	1.30029	0.1911762	-1.495488	32.68285	-24.22442	-998.6975	0.007013688	-0.0123902	0.0003407423	-3	-3	-3	0	
17:56:08:697	47.46363	-122.3077	0.02139413	0.02139413	0	0	0	0	0	0	1.592988	2.180009	161.3156	1.30029	0.1911762	-1.495488	32.68285	-24.22442	-998.6975	0.007013688	-0.0123902	0.0003407423	-3	-3	-3	0	
17:56:08:718	47.46363	-122.3077	0.02139413	0.02139413	0	0	0	0	0	0	1.592988	2.180009	161.3156	1.30029	0.1911762	-1.495488	32.68285	-24.22442	-998.6975	0.007013688	-0.0123902	0.0003407423	-3	-3	-3	0	
17:56:08:739	47.46363	-122.3077	0.02139413	0.02139413	0	0	0	0	0	0	1.592988	2.180009	161.3156	1.30029	0.1911762	-1.495488	32.68285	-24.22442	-998.6975	0.007013688	-0.0123902	0.0003407423	-3	-3	-3	0	
17:56:08:759	47.46363	-122.3077	0.02139413	0.02139413	0	0	0	0	0	0	1.592988	2.180009	161.3156	1.30029	0.1911762	-1.495488	32.68285	-24.22442	-998.6975	0.007013688	-0.0123902	0.0003407423	-3	-3	-3	0	
17:56:08:802	47.46363	-122.3077	0.02140595	0.02140595	0	0	0	0	0	0	1.636496	2.192572	161.2283	0.8181501	0.2054059	-1.824997	33.03307	-28.74653	-998.6291	0.01255687	-0.02240684	0.0005502665	-3	-3	-3	0	
17:56:08:822	47.46363	-122.3077	0.02140595	0.02140595	0	0	0	0	0	0	1.636496	2.192572	161.2283	0.8181501	0.2054059	-1.824997	33.03307	-28.74653	-998.6291	0.01255687	-0.02240684	0.0005502665	-3	-3	-3	0	
17:56:08:837	47.46363	-122.3077	0.02140595	0.02140595	0	0	0	0	0	0	1.636496	2.192572	161.2283	0.8181501	0.2054059	-1.824997	33.03307	-28.74653	-998.6291	0.01255687	-0.02240684	0.0005502665	-3	-3	-3	0	
17:56:08:861	47.46363	-122.3077	0.02140595	0.02140595	0	0	0	0	0	0	1.636496	2.192572	161.2283	0.8181501	0.2054059	-1.824997	33.03307	-28.74653	-998.6291	0.01255687	-0.02240684	0.0005502665	-3	-3	-3	0	
17:56:08:898	47.46363	-122.3077	0.02140595	0.02140595	0	0	0	0	0	0	1.636496	2.192572	161.2283	0.8181501	0.2054059	-1.824997	33.03307	-28.74653	-998.6291	0.01255687	-0.02240684	0.0005502665	-3	-3	-3	0	
17:56:08:918	47.46363	-122.3077	0.02140595	0.02140595	0	0	0	0	0	0	1.658151	2.206496	161.1249	0.407671	0.2207688	-2.139559	33.49161	-30.93933	-1000.582	0.01255687	-0.02240684	0.0005502665	-3	-3	-3	0	
17:56:08:935	47.46363	-122.3077	0.02140595	0.02140595	0	0	0	0	0	0	1.658151	2.206496	161.1249	0.407671	0.2207688	-2.139559	33.49161	-30.93933	-1000.582	0.01255687	-0.02240684	0.0005502665	-3	-3	-3	0	
17:56:08:960	47.46363	-122.3077	0.02140595	0.02140595	0	0	0	0	0	0	1.658151	2.206496	161.1249	0.407671	0.2207688	-2.139559	33.49161	-30.93933	-1000.582	0.01255687	-0.02240684	0.0005502665	-3	-3	-3	0	
17:56:09:4	47.46363	-122.3077	0.02145152	0.02145152	0	0	0	0	0	0	1.658151	2.206496	161.1249	0.407671	0.2207688	-2.139559	33.49161	-30.93933	-1000.582	0.01763946	-0.024542	0.002298872	-3	-3	-3	0	
17:56:09:22	47.46363	-122.3077	0.02145152	0.02145152	0	0	0	0	0	0	1.658151	2.206496	161.1249	0.407671	0.2207688	-2.139559	33.49161	-30.93933	-1000.582	0.01763946	-0.024542	0.002298872	-3	-3	-3	0	
17:56:09:37	47.46363	-122.3077	0.02145152	0.02145152	0	0	0	0	0	0	1.658151	2.206496	161.1249	0.407671	0.2207688	-2.139559	33.49161	-30.93933	-1000.582	0.01763946	-0.024542	0.002298872	-3	-3	-3	0	
17:56:09:64	47.46363	-122.3077	0.02145152	0.02145152	0	0	0	0	0	0	1.661225	2.220819	161.0063	0.07863335	0.2123404	-2.439995	33.87573	-31.47919	-997.9472	0.01763946	-0.024542	0.002298872	-3	-3	-3	0	
17:56:09:95	47.46363	-122.3077	0.02145152	0.02145152	0	0	0	0	0	0	1.661225	2.220819	161.0063	0.07863335	0.2123404	-2.439995	33.87573	-31.47919	-997.9472	0.01763946	-0.024542	0.002298872	-3	-3	-3	0	
17:56:09:99	47.46363	-122.3077	0.02145152	0.02145152	0	0	0	0	0	0	1.661225	2.220819	161.0063	0.07863335	0.2123404	-2.439995	33.87573	-31.47919	-997.9472	0.01763946	-0.024542	0.002298872	-3	-3	-3	0	
17:56:09:119	47.46363	-122.3077	0.02145152	0.02145152	0	0	0	0	0	0	1.661225	2.220819	161.0063	0.07863335	0.2123404	-2.439995	33.87573	-31.47919	-997.9472	0.01763946	-0.024542	0.002298872	-3	-3	-3	0	
17:56:09:142	47.46363	-122.3077	0.02145152	0.02145152	0	0	0	0	0	0	1.661225	2.220819	161.0063	0.07863335	0.2123404	-2.439995	33.87573	-31.47919	-997.9472	0.01763946	-0.024542	0.002298872	-3	-3	-3	0	
17:56:09:160	47.46363	-122.3077	0.02145152	0.02145152	0	0	0	0	0	0	1.661225	2.220819	161.0063	0.07863335	0.2123404	-2.439995	33.87573	-31.47919	-997.9472	0.01763946	-0.024542	0.002298872	-3	-3	-3	0	
17:56:09:201	47.46363	-122.3077	0.02145152	0.02145152	0	0	0	0	0	0	1.644665	2.235392	160.8731	-0.304205	0.2141934	-2.727913	34.21817	-31.62529	-998.0391	0.01763946	-0.024542	0.002298872	-3	-3	-3	0	
17:56:09:222	47.46363	-122.3077	0.02139959	0.02139959	0	0	0	0	0	0	1.644665	2.235392	160.8731	-0.304205	0.2141934	-2.727913	34.21817	-31.62529	-998.0391	0.02013734	-0.02360842	0.0007713658	-3	-3	-3	0	
17:56:09:238	47.46363	-122.3077	0.02139959	0.02139959	0	0	0	0	0	0	1.644665	2.235392	160.8731	-0.304205	0.2141934	-2.727913	34.21817	-31.62529	-998.0391	0.02013734	-0.02360842	0.0007713658	-3	-3	-3	0	
17:56:09:263	47.46363	-122.3077	0.02139959	0.02139959	0	0	0	0	0	0	1.644665	2.235392	160.8731	-0.304205	0.2141934	-2.727913	34.21817	-31.62529	-998.0391	0.02013734	-0.02360842	0.0007713658	-3	-3	-3	0	
17:56:09:329	47.46363	-122.3077	0.02139959	0.02139959	0	0	0	0	0	0	1.619064	2.249717	160.7258	-0.4030858	0.1995798	-3.003217	34.63995	-30.74271	-1000.099	0.02013734	-0.02360842	0.0007713658	-3	-3	-3	0	
17:56:09:340	47.46363	-122.3077	0.02139959	0.02139959	0	0	0	0	0	0	1.619064	2.249717	160.7258	-0.4030858	0.1995798	-3.003217	34.63995	-30.74271	-1000.099	0.02013734	-0.02360842	0.0007713658	-3	-3	-3	0	
17:56:09:373	47.46363	-122.3077	0.02139959	0.02139959	0	0	0	0	0	0	1.619064	2.249717	160.7258	-0.4030858	0.1995798	-3.003217	34.63995	-30.74271	-1000.099	0.02013734	-0.02360842	0.0007713658	-3	-3	-3	0	
17:56:09:403	47.46363	-122.3077	0.02139959	0.02139959	0	0	0	0	0	0	1.619064	2.249717	160.7258	-0.4030858	0.1995798	-3.003217	34.63995	-30.74271	-1000.099	0.02013734	-0.02360842	0.0007713658	-3	-3	-3	0	
17:56:09:430	47.46363	-122.3077	0.02150466	0.02150466	0	0	0	0	0	0	1.619064	2.249717	160.7258	-0.4030858	0.1995798	-3.003217	34.63995	-30.74271	-1000.099	0.02478821	-0.02111302	0.001211401	-3	-3	-3	0	
17:56:09:454	47.46363	-122.3077	0.02150466	0.02150466	0	0	0	0	0	0	1.595952	2.263893	160.5652	-0.3068737	0.1879876	-3.265232	35.04106	-28.7425	-1001.483	0.02478821	-0.02111302	0.001211401	-3	-3	-3	0	
17:56:09:468	47.46363	-122.3077	0.02150466	0.02150466	0	0	0	0	0	0	1.595952	2.263893	160.5652	-0.3068737	0.1879876	-3.265232	35.04106	-28.7425	-1001.483	0.02478821	-0.02111302	0.001211401	-3	-3	-3	0	
17:56:09:525	47.46363	-122.3077	0.02150466	0.02150466	0	0	0	0	0	0	1.595952	2.263893	160.5652	-0.3068737	0.1879876	-3.265232	35.04106	-28.7425	-1001.483	0.02478821	-0.02111302	0.001211401	-3	-3	-3	0	
17:56:09:541	47.46363	-122.3077	0.02150466	0.02150466	0	0	0	0	0	0	1.595952	2.263893	160.5652	-0.3068737	0.1879876	-3.265232	35.04106	-28.7425	-1001.483	0.02478821	-0.02111302	0.001211401	-3	-3	-3	0	
17:56:09:565	47.46363	-122.3077	0.02150466	0.02150466	0	0	0	0	0	0	1.595952	2.263893	160.5652	-0.3068737	0.1879876	-3.265232	35.04106	-28.7425	-1001.483	0.02478821	-0.02111302	0.001211401	-3	-3	-3	0	
17:56:09:610	47.46363	-122.3077	0.02150466	0.02150466	0	0	0	0	0	0	1.579051	2.276755	160.3918	-0.1649023	0.145612	-3.515285	35.29966	-26.96598	-988.7613	0.02478821	-0.02111302	0.001211401	-3	-3	-3	0	
17:56:09:622	47.46363	-122.3077	0.02136429	0.02136429	0	0	0	0	0	0	1.579051	2.276755	160.3918	-0.1649023	0.145612	-3.515285	35.29966	-26.96598	-988.7613	0.02693782	-0.019943	0.003106866	-3	-3	-3	0	
17:56:09:642	47.46363	-122.3077	0.02136429	0.02136429	0	0	0	0	0	0	1.579051	2.276755	160.3918	-0.1649023	0.145612	-3.515285	35.29966	-26.96598	-988.7613	0.02693782	-0.019943	0.003106866	-3	-3	-3	0	
17:56:09:663	47.46363	-122.3077	0.02136429	0.02136429	0	0	0	0	0	0	1.579051	2.276755	160.3918	-0.1649023	0.145612	-3.515285	35.29966	-26.96598	-988.7613	0.02693782	-0.019943	0.003106866	-3	-3	-3	0	
17:56:09:701	47.46363	-122.3077	0.02136429	0.02136429	0	0	0	0	0	0	1.579051	2.276755	160.3918	-0.1649023	0.145612	-3.515285	35.29966	-26.96598	-988.7613	0.02693782	-0.019943	0.003106866	-3	-3	-3	0	
17:56:09:729	47.46363	-122.3077	0.02136429	0.02136429	0	0	0	0	0	0	1.567303	2.287818	160.2063	-0.1062568	0.1058837	-3.752746	35.53233	-26.73337	-1004.643	0.02693782	-0.019943	0.003106866	-3	-3	-3	0	
17:56:09:743	47.46363	-122.3077	0.02136429	0.02136429	0	0	0	0	0	0	1.567303	2.287818	160.2063	-0.1062568	0.1058837	-3.752746	35.53233	-26.73337	-1004.643	0.02693782	-0.019943	0.003106866	-3	-3	-3	0	
17:56:09:765	47.46363	-122.3077	0.02136429	0.02136429	0	0	0	0	0	0	1.567303	2.287818	160.2063	-0.1062568	0.1058837	-3.752746	35.53233	-26.73337	-1004.643	0.02693782	-0.019943	0.003106866	-3	-3	-3	0	
17:56:09:804	47.46363	-122.3077	0.02136429	0.02136429	0	0	0	0	0	0	1.567303	2.287818	160.2063	-0.1062568	0.1058837	-3.752746	35.53233	-26.73337	-1004.643	0.02693782	-0.019943	0.003106866	-3	-3	-3	0	
17:56:09:823	47.46363	-122.3077	0.02139812	0.02139812	0	0	0	0	0	0	1.567303	2.287818	160.2063	-0.1062568	0.1058837	-3.752746	35.53233	-26.73337	-1004.643	0.03121466	-0.01953256	0.003112285	-3	-3	-3	0	
17:56:09:840	47.46363	-122.3077	0.02139812	0.02139812	0	0	0	0	0	0	1.567303	2.287818	160.2063	-0.1062568	0.1058837	-3.752746	35.53233	-26.73337	-1004.643	0.03121466	-0.01953256	0.003112285	-3	-3	-3	0	
17:56:09:864	47.46363	-122.3077	0.02139812	0.02139812	0	0	0	0	0	0	1.5556	2.296332	160.0091	-0.05883063	0.04635827	-3.979003	35.74731	-26.83199	-998.8024	0.03121466	-0.01953256	0.003112285	-3	-3	-3	0	
17:56:09:902	47.46363	-122.3077	0.02139812	0.02139812	0	0	0	0	0	0	1.5556	2.296332	160.0091	-0.05883063	0.04635827	-3.979003	35.74731	-26.83199	-998.8024	0.03121466	-0.01953256	0.003112285	-3	-3	-3	0	
17:56:09:922	47.46363	-122.3077	0.02139812	0.02139812	0	0	0	0	0	0	1.5556	2.296332	160.0091	-0.05883063	0.04635827	-3.979003	35.74731	-26.83199	-998.8024	0.03121466	-0.01953256	0.003112285	-3	-3	-3	0	
17:56:09:945	47.46363	-122.3077	0.02139812	0.02139812	0	0	0	0	0	0	1.5556	2.296332	160.0091	-0.05883063	0.04635827	-3.979003	35.74731	-26.83199	-998.8024	0.03121466	-0.01953256	0.003112285	-3	-3	-3	0	
17:56:09:965	47.46363	-122.3077	0.02139812	0.02139812	0	0	0	0	0	0	1.5556	2.296332	160.0091	-0.05883063	0.04635827	-3.979003	35.74731	-26.83199	-998.8024	0.03121466	-0.01953256	0.003112285	-3	-3	-3	0	
17:56:10:16	47.46363	-122.3077	0.02139812	0.02139812	0	0	0	0	0	0	1.549045	2.301364	159.8009	0.07212394	-0.02644578	-4.195369	35.96637	-26.51229	-999.1593	0.03121466	-0.01953256	0.003112285	-3	-3	-3	0	
17:56:10:28	47.46363	-122.3077	0.02131299	0.02131299	0	0	0	0	0	0	1.549045	2.301364	159.8009	0.07212394	-0.02644578	-4.195369	35.96637	-26.51229	-999.1593	0.03343748	-0.01989804	0.0009594025	-3	-3	-3	0	
17:56:10:41	47.46363	-122.3077	0.02131299	0.02131299	0	0	0	0	0	0	1.549045	2.301364	159.8009	0.07212394	-0.02644578	-4.195369	35.96637	-26.51229	-999.1593	0.03343748	-0.01989804	0.0009594025	-3	-3	-3	0	
17:56:10:61	47.46363	-122.3077	0.02131299	0.02131299	0	0	0	0	0	0	1.549045	2.301364	159.8009	0.07212394	-0.02644578	-4.195369	35.96637	-26.51229	-999.1593	0.03343748	-0.01989804	0.0009594025	-3	-3	-3	0	
17:56:10:100	47.46363	-122.3077	0.02131299	0.02131299	0	0	0	0	0	0	1.549045	2.301364	159.8009	0.07212394	-0.02644578	-4.195369	35.96637	-26.51229	-999.1593	0.03343748	-0.01989804	0.0009594025	-3	-3	-3	0	
17:56:10:107	47.46363	-122.3077	0.02131299	0.02131299	0	0	0	0	0	0	1.549045	2.301364	159.8009	0.07212394	-0.02644578	-4.195369	35.96637	-26.51229	-999.1593	0.03343748	-0.01989804	0.0009594025	-3	-3	-3	0	
17:56:10:123	47.46363	-122.3077	0.02131299	0.02131299	0	0	0	0	0	0	1.549045	2.301364	159.8009	0.07212394	-0.02644578	-4.195369	35.96637	-26.51229	-999.1593	0.03343748	-0.01989804	0.0009594025	-3	-3	-3	0	
17:56:10:143	47.46363	-122.3077	0.02131299	0.02131299	0	0	0	0	0	0	1.549045	2.301364	159.8009	0.07212394	-0.02644578	-4.195369	35.96637	-26.51229	-999.1593	0.03343748	-0.01989804	0.0009594025	-3	-3	-3	0	
17:56:10:168	47.46363	-122.3077	0.02131299	0.02131299	0	0	0	0	0	0	1.540889	2.304989	159.5821	0.01388701	-0.04911405	-4.40188	36.18766	-26.80058	-1001.811	0.03343748	-0.01989804	0.0009594025	-3	-3	-3	0	
17:56:10:206	47.46363	-122.3077	0.02131299	0.02131299	0	0	0	0	0	0	1.540889	2.304989	159.5821	0.01388701	-0.04911405	-4.40188	36.18766	-26.80058	-1001.811	0.03343748	-0.01989804	0.0009594025	-3	-3	-3	0	
17:56:10:220	47.46363	-122.3077	0.02131299	0.02131299	0	0	0	0	0	0	1.540889	2.304989	159.5821	0.01388701	-0.04911405	-4.40188	36.18766	-26.80058	-1001.811	0.03343748	-0.01989804	0.0009594025	-3	-3	-3	0	
17:56:10:243	47.46363	-122.3077	0.02137838	0.02137838	0	0	0	0	0	0	1.540889	2.304989	159.5821	0.01388701	-0.04911405	-4.40188	36.18766	-26.80058	-1001.811	0.0375197	-0.02042982	0.002466954	-3	-3	-3	0	
17:56:10:264	47.46363	-122.3077	0.02137838	0.02137838	0	0	0	0	0	0	1.540889	2.304989	159.5821	0.01388701	-0.04911405	-4.40188	36.18766	-26.80058	-1001.811	0.0375197	-0.02042982	0.002466954	-3	-3	-3	0	
17:56:10:324	47.46363	-122.3077	0.02137838	0.02137838	0	0	0	0	0	0	1.532934	2.307805	159.3532	0.04040445	-0.06752311	-4.599575	36.35243	-26.7494	-1001.249	0.0375197	-0.02042982	0.002466954	-3	-3	-3	0	
17:56:10:344	47.46363	-122.3077	0.02137838	0.02137838	0	0	0	0	0	0	1.532934	2.307805	159.3532	0.04040445	-0.06752311	-4.599575	36.35243	-26.7494	-1001.249	0.0375197	-0.02042982	0.002466954	-3	-3	-3	0	
17:56:10:364	47.46363	-122.3077	0.02137838	0.02137838	0	0	0	0	0	0	1.532934	2.307805	159.3532	0.04040445	-0.06752311	-4.599575	36.35243	-26.7494	-1001.249	0.0375197	-0.02042982	0.002466954	-3	-3	-3	0	
17:56:10:407	47.46363	-122.3077	0.02137838	0.02137838	0	0	0	0	0	0	1.532934	2.307805	159.3532	0.04040445	-0.06752311	-4.599575	36.35243	-26.7494	-1001.249	0.0375197	-0.02042982	0.002466954	-3	-3	-3	0	
17:56:10:442	47.46363	-122.3077	0.02137838	0.02137838	0	0	0	0	0	0	1.528166	2.310736	159.1147	0.1156166	-0.06856668	-4.787274	36.38493	-26.26448	-1002.015	0.0375197	-0.02042982	0.002466954	-3	-3	-3	0	
17:56:10:448	47.46363	-122.3077	0.0214604	0.0214604	0	0	0	0	0	0	1.528166	2.310736	159.1147	0.1156166	-0.06856668	-4.787274	36.38493	-26.26448	-1002.015	0.03952685	-0.020734	0.001816372	-3	-3	-3	0	
17:56:10:463	47.46363	-122.3077	0.0214604	0.0214604	0	0	0	0	0	0	1.528166	2.310736	159.1147	0.1156166	-0.06856668	-4.787274	36.38493	-26.26448	-1002.015	0.03952685	-0.020734	0.001816372	-3	-3	-3	0	
17:56:10:530	47.46363	-122.3077	0.0214604	0.0214604	0	0	0	0	0	0	1.528166	2.310736	159.1147	0.1156166	-0.06856668	-4.787274	36.38493	-26.26448	-1002.015	0.03952685	-0.020734	0.001816372	-3	-3	-3	0	
17:56:10:547	47.46363	-122.3077	0.0214604	0.0214604	0	0	0	0	0	0	1.520052	2.312389	158.8671	0.03012929	-0.1043384	-4.966823	36.31062	-26.59464	-999.5273	0.03952685	-0.020734	0.001816372	-3	-3	-3	0	
17:56:10:566	47.46363	-122.3077	0.0214604	0.0214604	0	0	0	0	0	0	1.520052	2.312389	158.8671	0.03012929	-0.1043384	-4.966823	36.31062	-26.59464	-999.5273	0.03952685	-0.020734	0.001816372	-3	-3	-3	0	
17:56:10:608	47.46363	-122.3077	0.0214604	0.0214604	0	0	0	0	0	0	1.520052	2.312389	158.8671	0.03012929	-0.1043384	-4.966823	36.31062	-26.59464	-999.5273	0.03952685	-0.020734	0.001816372	-3	-3	-3	0	
17:56:10:622	47.46363	-122.3077	0.0214604	0.0214604	0	0	0	0	0	0	1.520052	2.312389	158.8671	0.03012929	-0.1043384	-4.966823	36.31062	-26.59464	-999.5273	0.03952685	-0.020734	0.001816372	-3	-3	-3	0	
17:56:10:648	47.46363	-122.3077	0.02143109	0.02143109	0	0	0	0	0	0	1.520052	2.312389	158.8671	0.03012929	-0.1043384	-4.966823	36.31062	-26.59464	-999.5273	0.04341853	-0.0211383	0.0009121099	-3	-3	-3	0	
17:56:10:663	47.46363	-122.3077	0.02143109	0.02143109	0	0	0	0	0	0	1.520052	2.312389	158.8671	0.03012929	-0.1043384	-4.966823	36.31062	-26.59464	-999.5273	0.04341853	-0.0211383	0.0009121099	-3	-3	-3	0	
17:56:10:704	47.46363	-122.3077	0.02143109	0.02143109	0	0	0	0	0	0	1.509229	2.313267	158.6108	-0.06713688	-0.1209854	-5.138943	36.34424	-25.80594	-986.2372	0.04341853	-0.0211383	0.0009121099	-3	-3	-3	0	
17:56:10:725	47.46363	-122.3077	0.02143109	0.02143109	0	0	0	0	0	0	1.509229	2.313267	158.6108	-0.06713688	-0.1209854	-5.138943	36.34424	-25.80594	-986.2372	0.04341853	-0.0211383	0.0009121099	-3	-3	-3	0	
17:56:10:742	47.46363	-122.3077	0.02143109	0.02143109	0	0	0	0	0	0	1.509229	2.313267	158.6108	-0.06713688	-0.1209854	-5.138943	36.34424	-25.80594	-986.2372	0.04341853	-0.0211383	0.0009121099	-3	-3	-3	0	
17:56:10:765	47.46363	-122.3077	0.02143109	0.02143109	0	0	0	0	0	0	1.509229	2.313267	158.6108	-0.06713688	-0.1209854	-5.138943	36.34424	-25.80594	-986.2372	0.04341853	-0.0211383	0.0009121099	-3	-3	-3	0	
17:56:10:814	47.46363	-122.3077	0.02143109	0.02143109	0	0	0	0	0	0	1.494673	2.315301	158.3461	-0.06929503	-0.08904392	-5.302141	36.51917	-26.62768	-1003.945	0.04341853	-0.0211383	0.0009121099	-3	-3	-3	0	
17:56:10:827	47.46363	-122.3077	0.02143109	0.02143109	0	0	0	0	0	0	1.494673	2.315301	158.3461	-0.06929503	-0.08904392	-5.302141	36.51917	-26.62768	-1003.945	0.04341853	-0.0211383	0.0009121099	-3	-3	-3	0	
17:56:10:854	47.46363	-122.3077	0.02133439	0.02133439	0	0	0	0	0	0	1.494673	2.315301	158.3461	-0.06929503	-0.08904392	-5.302141	36.51917	-26.62768	-1003.945	0.04535868	-0.02135759	0.001808445	-3	-3	-3	0	
17:56:10:863	47.46363	-122.3077	0.02133439	0.02133439	0	0	0	0	0	0	1.494673	2.315301	158.3461	-0.06929503	-0.08904392	-5.302141	36.51917	-26.62768	-1003.945	0.04535868	-0.02135759	0.001808445	-3	-3	-3	0	
17:56:10:909	47.46363	-122.3077	0.02133439	0.02133439	0	0	0	0	0	0	1.494673	2.315301	158.3461	-0.06929503	-0.08904392	-5.302141	36.51917	-26.62768	-1003.945	0.04535868	-0.02135759	0.001808445	-3	-3	-3	0	
17:56:10:947	47.46363	-122.3077	0.02133439	0.02133439	0	0	0	0	0	0	1.494673	2.315301	158.3461	-0.06929503	-0.08904392	-5.302141	36.51917	-26.62768	-1003.945	0.04535868	-0.02135759	0.001808445	-3	-3	-3	0	
17:56:10:952	47.46363	-122.3077	0.02133439	0.02133439	0	0	0	0	0	0	1.494673	2.315301	158.3461	-0.06929503	-0.08904392	-5.302141	36.51917	-26.62768	-1003.945	0.04535868	-0.02135759	0.001808445	-3	-3	-3	0	
17:56:10:965	47.46363	-122.3077	0.02133439	0.02133439	0	0	0	0	0	0	1.483156	2.318848	158.0736	0.01386711	-0.06916299	-5.458535	36.56335	-25.32646	-989.4461	0.04535868	-0.02135759	0.001808445	-3	-3	-3	0	
17:56:11:10	47.46363	-122.3077	0.02133439	0.02133439	0	0	0	0	0	0	1.483156	2.318848	158.0736	0.01386711	-0.06916299	-5.458535	36.56335	-25.32646	-989.4461	0.04535868	-0.02135759	0.001808445	-3	-3	-3	0	
17:56:11:26	47.46363	-122.3077	0.02133439	0.02133439	0	0	0	0	0	0	1.483156	2.318848	158.0736	0.01386711	-0.06916299	-5.458535	36.56335	-25.32646	-989.4461	0.04535868	-0.02135759	0.001808445	-3	-3	-3	0	
17:56:11:43	47.46363	-122.3077	0.02133439	0.02133439	0	0	0	0	0	0	1.483156	2.318848	158.0736	0.01386711	-0.06916299	-5.458535	36.56335	-25.32646	-989.4461	0.04535868	-0.02135759	0.001808445	-3	-3	-3	0	
17:56:11:65	47.46363	-122.3077	0.02126594	0.02126594	0	0	0	0	0	0	1.483156	2.318848	158.0736	0.01386711	-0.06916299	-5.458535	36.56335	-25.32646	-989.4461	0.04922475	-0.02138695	0.001940118	-3	-3	-3	0	
17:56:11:108	47.46363	-122.3077	0.02126594	0.02126594	0	0	0	0	0	0	1.469979	2.323235	157.7935	-0.03509828	-0.05374626	-5.606231	36.71007	-25.6872	-1002.316	0.04922475	-0.02138695	0.001940118	-3	-3	-3	0	
17:56:11:111	47.46363	-122.3077	0.02126594	0.02126594	0	0	0	0	0	0	1.469979	2.323235	157.7935	-0.03509828	-0.05374626	-5.606231	36.71007	-25.6872	-1002.316	0.04922475	-0.02138695	0.001940118	-3	-3	-3	0	
17:56:11:126	47.46363	-122.3077	0.02126594	0.02126594	0	0	0	0	0	0	1.469979	2.323235	157.7935	-0.03509828	-0.05374626	-5.606231	36.71007	-25.6872	-1002.316	0.04922475	-0.02138695	0.001940118	-3	-3	-3	0	
17:56:11:143	47.46363	-122.3077	0.02126594	0.02126594	0	0	0	0	0	0	1.469979	2.323235	157.7935	-0.03509828	-0.05374626	-5.606231	36.71007	-25.6872	-1002.316	0.04922475	-0.02138695	0.001940118	-3	-3	-3	0	
17:56:11:166	47.46363	-122.3077	0.02126594	0.02126594	0	0	0	0	0	0	1.469979	2.323235	157.7935	-0.03509828	-0.05374626	-5.606231	36.71007	-25.6872	-1002.316	0.04922475	-0.02138695	0.001940118	-3	-3	-3	0	
17:56:11:213	47.46363	-122.3077	0.02126594	0.02126594	0	0	0	0	0	0	1.469979	2.323235	157.7935	-0.03509828	-0.05374626	-5.606231	36.71007	-25.6872	-1002.316	0.04922475	-0.02138695	0.001940118	-3	-3	-3	0	
17:56:11:224	47.46363	-122.3077	0.02126594	0.02126594	0	0	0	0	0	0	1.469979	2.323235	157.7935	-0.03509828	-0.05374626	-5.606231	36.71007	-25.6872	-1002.316	0.04922475	-0.02138695	0.001940118	-3	-3	-3	0	
17:56:11:245	47.46363	-122.3077	0.02126594	0.02126594	0	0	0	0	0	0	1.455134	2.328005	157.5061	-0.1020505	-0.04231324	-5.749106	36.7588	-25.14447	-996.5099	0.04922475	-0.02138695	0.001940118	-3	-3	-3	0	
17:56:11:267	47.46363	-122.3077	0.02135925	0.02135925	0	0	0	0	0	0	1.455134	2.328005	157.5061	-0.1020505	-0.04231324	-5.749106	36.7588	-25.14447	-996.5099	0.05104536	-0.02158311	0.003266182	-3	-3	-3	0	
17:56:11:347	47.46363	-122.3077	0.02135925	0.02135925	0	0	0	0	0	0	1.455134	2.328005	157.5061	-0.1020505	-0.04231324	-5.749106	36.7588	-25.14447	-996.5099	0.05104536	-0.02158311	0.003266182	-3	-3	-3	0	
17:56:11:352	47.46363	-122.3077	0.02135925	0.02135925	0	0	0	0	0	0	1.455134	2.328005	157.5061	-0.1020505	-0.04231324	-5.749106	36.7588	-25.14447	-996.5099	0.05104536	-0.02158311	0.003266182	-3	-3	-3	0	
17:56:11:369	47.46363	-122.3077	0.02135925	0.02135925	0	0	0	0	0	0	1.455134	2.328005	157.5061	-0.1020505	-0.04231324	-5.749106	36.7588	-25.14447	-996.5099	0.05104536	-0.02158311	0.003266182	-3	-3	-3	0	
17:56:11:414	47.46363	-122.3077	0.02135925	0.02135925	0	0	0	0	0	0	1.438015	2.334417	157.2119	-0.09099317	-0.007676691	-5.8849	36.81815	-25.44442	-1003.458	0.05104536	-0.02158311	0.003266182	-3	-3	-3	0	
17:56:11:424	47.46363	-122.3077	0.02135925	0.02135925	0	0	0	0	0	0	1.438015	2.334417	157.2119	-0.09099317	-0.007676691	-5.8849	36.81815	-25.44442	-1003.458	0.05104536	-0.02158311	0.003266182	-3	-3	-3	0	
17:56:11:446	47.46363	-122.3077	0.02135925	0.02135925	0	0	0	0	0	0	1.438015	2.334417	157.2119	-0.09099317	-0.007676691	-5.8849	36.81815	-25.44442	-1003.458	0.05104536	-0.02158311	0.003266182	-3	-3	-3	0	
17:56:11:477	47.46363	-122.3077	0.02152602	0.02152602	0	0	0	0	0	0	1.438015	2.334417	157.2119	-0.09099317	-0.007676691	-5.8849	36.81815	-25.44442	-1003.458	0.05476428	-0.02208669	0.003460011	-3	-3	-3	0	
17:56:11:530	47.46363	-122.3077	0.02152602	0.02152602	0	0	0	0	0	0	1.426025	2.343095	156.9112	0.03923098	0.02936328	-6.013527	36.84546	-24.16529	-994.0583	0.05476428	-0.02208669	0.003460011	-3	-3	-3	0	
17:56:11:548	47.46363	-122.3077	0.02152602	0.02152602	0	0	0	0	0	0	1.426025	2.343095	156.9112	0.03923098	0.02936328	-6.013527	36.84546	-24.16529	-994.0583	0.05476428	-0.02208669	0.003460011	-3	-3	-3	0	
17:56:11:568	47.46363	-122.3077	0.02152602	0.02152602	0	0	0	0	0	0	1.426025	2.343095	156.9112	0.03923098	0.02936328	-6.013527	36.84546	-24.16529	-994.0583	0.05476428	-0.02208669	0.003460011	-3	-3	-3	0	
17:56:11:617	47.46363	-122.3077	0.02152602	0.02152602	0	0	0	0	0	0	1.426025	2.343095	156.9112	0.03923098	0.02936328	-6.013527	36.84546	-24.16529	-994.0583	0.05476428	-0.02208669	0.003460011	-3	-3	-3	0	
17:56:11:625	47.46363	-122.3077	0.02152602	0.02152602	0	0	0	0	0	0	1.426025	2.343095	156.9112	0.03923098	0.02936328	-6.013527	36.84546	-24.16529	-994.0583	0.05476428	-0.02208669	0.003460011	-3	-3	-3	0	
17:56:11:647	47.46363	-122.3077	0.02152602	0.02152602	0	0	0	0	0	0	1.413461	2.352994	156.6043	-0.006799352	0.04801245	-6.134627	37.1257	-24.30363	-1001.965	0.05476428	-0.02208669	0.003460011	-3	-3	-3	0	
17:56:11:671	47.46363	-122.3077	0.02152602	0.02152602	0	0	0	0	0	0	1.413461	2.352994	156.6043	-0.006799352	0.04801245	-6.134627	37.1257	-24.30363	-1001.965	0.05476428	-0.02208669	0.003460011	-3	-3	-3	0	
17:56:11:707	47.46363	-122.3077	0.02132551	0.02132551	0	0	0	0	0	0	1.413461	2.352994	156.6043	-0.006799352	0.04801245	-6.134627	37.1257	-24.30363	-1001.965	0.05665253	-0.02214859	0.003889262	-3	-3	-3	0	
17:56:11:729	47.46363	-122.3077	0.02132551	0.02132551	0	0	0	0	0	0	1.413461	2.352994	156.6043	-0.006799352	0.04801245	-6.134627	37.1257	-24.30363	-1001.965	0.05665253	-0.02214859	0.003889262	-3	-3	-3	0	
17:56:11:751	47.46363	-122.3077	0.02132551	0.02132551	0	0	0	0	0	0	1.413461	2.352994	156.6043	-0.006799352	0.04801245	-6.134627	37.1257	-24.30363	-1001.965	0.05665253	-0.02214859	0.003889262	-3	-3	-3	0	
17:56:11:773	47.46363	-122.3077	0.02132551	0.02132551	0	0	0	0	0	0	1.399748	2.363085	156.2915	-0.04629254	0.0552667	-6.252308	37.32938	-24.01798	-997.9772	0.05665253	-0.02214859	0.003889262	-3	-3	-3	0	
17:56:11:811	47.46363	-122.3077	0.02132551	0.02132551	0	0	0	0	0	0	1.399748	2.363085	156.2915	-0.04629254	0.0552667	-6.252308	37.32938	-24.01798	-997.9772	0.05665253	-0.02214859	0.003889262	-3	-3	-3	0	
17:56:11:830	47.46363	-122.3077	0.02132551	0.02132551	0	0	0	0	0	0	1.399748	2.363085	156.2915	-0.04629254	0.0552667	-6.252308	37.32938	-24.01798	-997.9772	0.05665253	-0.02214859	0.003889262	-3	-3	-3	0	
17:56:11:847	47.46363	-122.3077	0.02132551	0.02132551	0	0	0	0	0	0	1.399748	2.363085	156.2915	-0.04629254	0.0552667	-6.252308	37.32938	-24.01798	-997.9772	0.05665253	-0.02214859	0.003889262	-3	-3	-3	0	
17:56:11:867	47.46363	-122.3077	0.02132551	0.02132551	0	0	0	0	0	0	1.399748	2.363085	156.2915	-0.04629254	0.0552667	-6.252308	37.32938	-24.01798	-997.9772	0.05665253	-0.02214859	0.003889262	-3	-3	-3	0	
17:56:11:909	47.46363	-122.3077	0.02147448	0.02147448	0	0	0	0	0	0	1.386096	2.374486	155.973	0.01392311	0.08448987	-6.363856	37.55794	-24.18862	-1005.018	0.06056533	-0.0229762	0.001155598	-3	-3	-3	0	
17:56:11:930	47.46363	-122.3077	0.02147448	0.02147448	0	0	0	0	0	0	1.386096	2.374486	155.973	0.01392311	0.08448987	-6.363856	37.55794	-24.18862	-1005.018	0.06056533	-0.0229762	0.001155598	-3	-3	-3	0	
17:56:11:950	47.46363	-122.3077	0.02147448	0.02147448	0	0	0	0	0	0	1.386096	2.374486	155.973	0.01392311	0.08448987	-6.363856	37.55794	-24.18862	-1005.018	0.06056533	-0.0229762	0.001155598	-3	-3	-3	0	
17:56:11:969	47.46363	-122.3077	0.02147448	0.02147448	0	0	0	0	0	0	1.386096	2.374486	155.973	0.01392311	0.08448987	-6.363856	37.55794	-24.18862	-1005.018	0.06056533	-0.0229762	0.001155598	-3	-3	-3	0	
17:56:12:13	47.46363	-122.3077	0.02147448	0.02147448	0	0	0	0	0	0	1.386096	2.374486	155.973	0.01392311	0.08448987	-6.363856	37.55794	-24.18862	-1005.018	0.06056533	-0.0229762	0.001155598	-3	-3	-3	0	
17:56:12:32	47.46363	-122.3077	0.02147448	0.02147448	0	0	0	0	0	0	1.386096	2.374486	155.973	0.01392311	0.08448987	-6.363856	37.55794	-24.18862	-1005.018	0.06056533	-0.0229762	0.001155598	-3	-3	-3	0	
17:56:12:48	47.46363	-122.3077	0.02147448	0.02147448	0	0	0	0	0	0	1.386096	2.374486	155.973	0.01392311	0.08448987	-6.363856	37.55794	-24.18862	-1005.018	0.06056533	-0.0229762	0.001155598	-3	-3	-3	0	
17:56:12:73	47.46363	-122.3077	0.02147448	0.02147448	0	0	0	0	0	0	1.373859	2.387388	155.6491	-0.01132698	0.09749793	-6.469129	37.68284	-23.23849	-996.9701	0.06056533	-0.0229762	0.001155598	-3	-3	-3	0	
17:56:12:106	47.46363	-122.3077	0.02147448	0.02147448	0	0	0	0	0	0	1.373859	2.387388	155.6491	-0.01132698	0.09749793	-6.469129	37.68284	-23.23849	-996.9701	0.06056533	-0.0229762	0.001155598	-3	-3	-3	0	
17:56:12:110	47.46363	-122.3077	0.02127521	0.02127521	0	0	0	0	0	0	1.373859	2.387388	155.6491	-0.01132698	0.09749793	-6.469129	37.68284	-23.23849	-996.9701	0.06415083	-0.02361426	0.003937743	-3	-3	-3	0	
17:56:12:134	47.46363	-122.3077	0.02127521	0.02127521	0	0	0	0	0	0	1.373859	2.387388	155.6491	-0.01132698	0.09749793	-6.469129	37.68284	-23.23849	-996.9701	0.06415083	-0.02361426	0.003937743	-3	-3	-3	0	
17:56:12:149	47.46363	-122.3077	0.02127521	0.02127521	0	0	0	0	0	0	1.373859	2.387388	155.6491	-0.01132698	0.09749793	-6.469129	37.68284	-23.23849	-996.9701	0.06415083	-0.02361426	0.003937743	-3	-3	-3	0	
17:56:12:175	47.46363	-122.3077	0.02127521	0.02127521	0	0	0	0	0	0	1.373859	2.387388	155.6491	-0.01132698	0.09749793	-6.469129	37.68284	-23.23849	-996.9701	0.06415083	-0.02361426	0.003937743	-3	-3	-3	0	
17:56:12:220	47.46363	-122.3077	0.02127521	0.02127521	0	0	0	0	0	0	1.373859	2.387388	155.6491	-0.01132698	0.09749793	-6.469129	37.68284	-23.23849	-996.9701	0.06415083	-0.02361426	0.003937743	-3	-3	-3	0	
17:56:12:231	47.46363	-122.3077	0.02127521	0.02127521	0	0	0	0	0	0	1.360163	2.399715	155.3201	0.00572929	0.08425929	-6.570281	37.86785	-23.25807	-992.6134	0.06415083	-0.02361426	0.003937743	-3	-3	-3	0	
17:56:12:248	47.46363	-122.3077	0.02127521	0.02127521	0	0	0	0	0	0	1.360163	2.399715	155.3201	0.00572929	0.08425929	-6.570281	37.86785	-23.25807	-992.6134	0.06415083	-0.02361426	0.003937743	-3	-3	-3	0	
17:56:12:272	47.46363	-122.3077	0.02127521	0.02127521	0	0	0	0	0	0	1.360163	2.399715	155.3201	0.00572929	0.08425929	-6.570281	37.86785	-23.25807	-992.6134	0.06415083	-0.02361426	0.003937743	-3	-3	-3	0	
17:56:12:331	47.46363	-122.3077	0.02134236	0.02134236	0	0	0	0	0	0	1.360163	2.399715	155.3201	0.00572929	0.08425929	-6.570281	37.86785	-23.25807	-992.6134	0.06605382	-0.02413509	0.002862776	-3	-3	-3	0	
17:56:12:357	47.46363	-122.3077	0.02134236	0.02134236	0	0	0	0	0	0	1.360163	2.399715	155.3201	0.00572929	0.08425929	-6.570281	37.86785	-23.25807	-992.6134	0.06605382	-0.02413509	0.002862776	-3	-3	-3	0	
17:56:12:374	47.46363	-122.3077	0.02134236	0.02134236	0	0	0	0	0	0	1.342677	2.412335	154.9862	-0.06407567	0.09422137	-6.667427	38.03329	-23.37227	-992.7533	0.06605382	-0.02413509	0.002862776	-3	-3	-3	0	
17:56:12:424	47.46363	-122.3077	0.02134236	0.02134236	0	0	0	0	0	0	1.342677	2.412335	154.9862	-0.06407567	0.09422137	-6.667427	38.03329	-23.37227	-992.7533	0.06605382	-0.02413509	0.002862776	-3	-3	-3	0	
17:56:12:432	47.46363	-122.3077	0.02134236	0.02134236	0	0	0	0	0	0	1.342677	2.412335	154.9862	-0.06407567	0.09422137	-6.667427	38.03329	-23.37227	-992.7533	0.06605382	-0.02413509	0.002862776	-3	-3	-3	0	
17:56:12:453	47.46363	-122.3077	0.02134236	0.02134236	0	0	0	0	0	0	1.342677	2.412335	154.9862	-0.06407567	0.09422137	-6.667427	38.03329	-23.37227	-992.7533	0.06605382	-0.02413509	0.002862776	-3	-3	-3	0	
17:56:12:474	47.46363	-122.3077	0.02134236	0.02134236	0	0	0	0	0	0	1.342677	2.412335	154.9862	-0.06407567	0.09422137	-6.667427	38.03329	-23.37227	-992.7533	0.06605382	-0.02413509	0.002862776	-3	-3	-3	0	
17:56:12:537	47.46363	-122.3077	0.02139495	0.02139495	0	0	0	0	0	0	1.326279	2.425769	154.6477	-0.07258646	0.1130598	-6.756797	38.36279	-22.92199	-1009.766	0.06788943	-0.0244859	0.003822514	-3	-3	-3	0	
17:56:12:551	47.46363	-122.3077	0.02139495	0.02139495	0	0	0	0	0	0	1.326279	2.425769	154.6477	-0.07258646	0.1130598	-6.756797	38.36279	-22.92199	-1009.766	0.06788943	-0.0244859	0.003822514	-3	-3	-3	0	
17:56:12:571	47.46363	-122.3077	0.02139495	0.02139495	0	0	0	0	0	0	1.326279	2.425769	154.6477	-0.07258646	0.1130598	-6.756797	38.36279	-22.92199	-1009.766	0.06788943	-0.0244859	0.003822514	-3	-3	-3	0	
17:56:12:622	47.46363	-122.3077	0.02139495	0.02139495	0	0	0	0	0	0	1.326279	2.425769	154.6477	-0.07258646	0.1130598	-6.756797	38.36279	-22.92199	-1009.766	0.06788943	-0.0244859	0.003822514	-3	-3	-3	0	
17:56:12:639	47.46363	-122.3077	0.02139495	0.02139495	0	0	0	0	0	0	1.308459	2.438089	154.3047	-0.04219219	0.08365273	-6.844292	38.56966	-22.7164	-1000.313	0.06788943	-0.0244859	0.003822514	-3	-3	-3	0	
17:56:12:649	47.46363	-122.3077	0.02139495	0.02139495	0	0	0	0	0	0	1.308459	2.438089	154.3047	-0.04219219	0.08365273	-6.844292	38.56966	-22.7164	-1000.313	0.06788943	-0.0244859	0.003822514	-3	-3	-3	0	
17:56:12:674	47.46363	-122.3077	0.02139495	0.02139495	0	0	0	0	0	0	1.308459	2.438089	154.3047	-0.04219219	0.08365273	-6.844292	38.56966	-22.7164	-1000.313	0.06788943	-0.0244859	0.003822514	-3	-3	-3	0	
17:56:12:715	47.46363	-122.3077	0.02139495	0.02139495	0	0	0	0	0	0	1.308459	2.438089	154.3047	-0.04219219	0.08365273	-6.844292	38.56966	-22.7164	-1000.313	0.06788943	-0.0244859	0.003822514	-3	-3	-3	0	
17:56:12:741	47.46363	-122.3077	0.02140669	0.02140669	0	0	0	0	0	0	1.308459	2.438089	154.3047	-0.04219219	0.08365273	-6.844292	38.56966	-22.7164	-1000.313	0.07179481	-0.02523308	0.001314186	-3	-3	-3	0	
17:56:12:756	47.46363	-122.3077	0.02140669	0.02140669	0	0	0	0	0	0	1.308459	2.438089	154.3047	-0.04219219	0.08365273	-6.844292	38.56966	-22.7164	-1000.313	0.07179481	-0.02523308	0.001314186	-3	-3	-3	0	
17:56:12:778	47.46363	-122.3077	0.02140669	0.02140669	0	0	0	0	0	0	1.292301	2.449555	153.9575	-0.05011899	0.07503138	-6.927592	38.70004	-21.844	-1000.085	0.07179481	-0.02523308	0.001314186	-3	-3	-3	0	
17:56:12:824	47.46363	-122.3077	0.02140669	0.02140669	0	0	0	0	0	0	1.292301	2.449555	153.9575	-0.05011899	0.07503138	-6.927592	38.70004	-21.844	-1000.085	0.07179481	-0.02523308	0.001314186	-3	-3	-3	0	
17:56:12:834	47.46363	-122.3077	0.02140669	0.02140669	0	0	0	0	0	0	1.292301	2.449555	153.9575	-0.05011899	0.07503138	-6.927592	38.70004	-21.844	-1000.085	0.07179481	-0.02523308	0.001314186	-3	-3	-3	0	
17:56:12:855	47.46363	-122.3077	0.02140669	0.02140669	0	0	0	0	0	0	1.292301	2.449555	153.9575	-0.05011899	0.07503138	-6.927592	38.70004	-21.844	-1000.085	0.07179481	-0.02523308	0.001314186	-3	-3	-3	0	
17:56:12:879	47.46363	-122.3077	0.02140669	0.02140669	0	0	0	0	0	0	1.292301	2.449555	153.9575	-0.05011899	0.07503138	-6.927592	38.70004	-21.844	-1000.085	0.07179481	-0.02523308	0.001314186	-3	-3	-3	0	
17:56:12:916	47.46363	-122.3077	0.02140669	0.02140669	0	0	0	0	0	0	1.292301	2.449555	153.9575	-0.05011899	0.07503138	-6.927592	38.70004	-21.844	-1000.085	0.07179481	-0.02523308	0.001314186	-3	-3	-3	0	
17:56:12:939	47.46363	-122.3077	0.02140669	0.02140669	0	0	0	0	0	0	1.292301	2.449555	153.9575	-0.05011899	0.07503138	-6.927592	38.70004	-21.844	-1000.085	0.07179481	-0.02523308	0.001314186	-3	-3	-3	0	
17:56:12:952	47.46363	-122.3077	0.02145365	0.02145365	0	0	0	0	0	0	1.292301	2.449555	153.9575	-0.05011899	0.07503138	-6.927592	38.70004	-21.844	-1000.085	0.07361436	-0.02560043	0.002699219	-3	-3	-3	0	
17:56:12:977	47.46363	-122.3077	0.02145365	0.02145365	0	0	0	0	0	0	1.274792	2.460957	153.6062	-0.06917432	0.06982172	-7.006036	38.97302	-22.03201	-1007.716	0.07361436	-0.02560043	0.002699219	-3	-3	-3	0	
17:56:13:22	47.46363	-122.3077	0.02145365	0.02145365	0	0	0	0	0	0	1.274792	2.460957	153.6062	-0.06917432	0.06982172	-7.006036	38.97302	-22.03201	-1007.716	0.07361436	-0.02560043	0.002699219	-3	-3	-3	0	
17:56:13:35	47.46363	-122.3077	0.02145365	0.02145365	0	0	0	0	0	0	1.274792	2.460957	153.6062	-0.06917432	0.06982172	-7.006036	38.97302	-22.03201	-1007.716	0.07361436	-0.02560043	0.002699219	-3	-3	-3	0	
17:56:13:57	47.46363	-122.3077	0.02145365	0.02145365	0	0	0	0	0	0	1.274792	2.460957	153.6062	-0.06917432	0.06982172	-7.006036	38.97302	-22.03201	-1007.716	0.07361436	-0.02560043	0.002699219	-3	-3	-3	0	
17:56:13:80	47.46363	-122.3077	0.02145365	0.02145365	0	0	0	0	0	0	1.274792	2.460957	153.6062	-0.06917432	0.06982172	-7.006036	38.97302	-22.03201	-1007.716	0.07361436	-0.02560043	0.002699219	-3	-3	-3	0	
17:56:13:117	47.46363	-122.3077	0.02145365	0.02145365	0	0	0	0	0	0	1.256322	2.471576	153.2511	-0.04183609	0.05403581	-7.080687	39.14685	-21.73652	-1003.215	0.07361436	-0.02560043	0.002699219	-3	-3	-3	0	
17:56:13:120	47.46363	-122.3077	0.02145365	0.02145365	0	0	0	0	0	0	1.256322	2.471576	153.2511	-0.04183609	0.05403581	-7.080687	39.14685	-21.73652	-1003.215	0.07361436	-0.02560043	0.002699219	-3	-3	-3	0	
17:56:13:138	47.46363	-122.3077	0.02145365	0.02145365	0	0	0	0	0	0	1.256322	2.471576	153.2511	-0.04183609	0.05403581	-7.080687	39.14685	-21.73652	-1003.215	0.07361436	-0.02560043	0.002699219	-3	-3	-3	0	
17:56:13:158	47.46363	-122.3077	0.02145219	0.02145219	0	0	0	0	0	0	1.256322	2.471576	153.2511	-0.04183609	0.05403581	-7.080687	39.14685	-21.73652	-1003.215	0.07544103	-0.02620837	0.003972663	-3	-3	-3	0	
17:56:13:177	47.46363	-122.3077	0.02145219	0.02145219	0	0	0	0	0	0	1.256322	2.471576	153.2511	-0.04183609	0.05403581	-7.080687	39.14685	-21.73652	-1003.215	0.07544103	-0.02620837	0.003972663	-3	-3	-3	0	
17:56:13:223	47.46363	-122.3077	0.02145219	0.02145219	0	0	0	0	0	0	1.256322	2.471576	153.2511	-0.04183609	0.05403581	-7.080687	39.14685	-21.73652	-1003.215	0.07544103	-0.02620837	0.003972663	-3	-3	-3	0	
17:56:13:241	47.46363	-122.3077	0.02145219	0.02145219	0	0	0	0	0	0	1.243488	2.481232	152.8924	0.08150825	0.03538194	-7.151648	39.3448	-20.75729	-1002.236	0.07544103	-0.02620837	0.003972663	-3	-3	-3	0	
17:56:13:257	47.46363	-122.3077	0.02145219	0.02145219	0	0	0	0	0	0	1.243488	2.481232	152.8924	0.08150825	0.03538194	-7.151648	39.3448	-20.75729	-1002.236	0.07544103	-0.02620837	0.003972663	-3	-3	-3	0	
17:56:13:280	47.46363	-122.3077	0.02145219	0.02145219	0	0	0	0	0	0	1.243488	2.481232	152.8924	0.08150825	0.03538194	-7.151648	39.3448	-20.75729	-1002.236	0.07544103	-0.02620837	0.003972663	-3	-3	-3	0	
17:56:13:341	47.46363	-122.3077	0.02145219	0.02145219	0	0	0	0	0	0	1.243488	2.481232	152.8924	0.08150825	0.03538194	-7.151648	39.3448	-20.75729	-1002.236	0.07544103	-0.02620837	0.003972663	-3	-3	-3	0	
17:56:13:358	47.46363	-122.3077	0.02143887	0.02143887	0	0	0	0	0	0	1.243488	2.481232	152.8924	0.08150825	0.03538194	-7.151648	39.3448	-20.75729	-1002.236	0.07924933	-0.02718637	0.003088337	-3	-3	-3	0	
17:56:13:378	47.46363	-122.3077	0.02143887	0.02143887	0	0	0	0	0	0	1.227248	2.488495	152.5302	-0.04363404	-0.02127942	-7.220174	39.51654	-21.14996	-1006.948	0.07924933	-0.02718637	0.003088337	-3	-3	-3	0	
17:56:13:436	47.46363	-122.3077	0.02143887	0.02143887	0	0	0	0	0	0	1.227248	2.488495	152.5302	-0.04363404	-0.02127942	-7.220174	39.51654	-21.14996	-1006.948	0.07924933	-0.02718637	0.003088337	-3	-3	-3	0	
17:56:13:561	47.46363	-122.3077	0.02145935	0.02145935	0	0	0	0	0	0	1.208335	2.493075	152.1646	-0.04658004	-0.07307103	-7.284176	39.5458	-21.01978	-1004.486	0.08106724	-0.02790898	0.003446709	-3	-3	-3	0	
17:56:13:604	47.46363	-122.3077	0.02145935	0.02145935	0	0	0	0	0	0	1.208335	2.493075	152.1646	-0.04658004	-0.07307103	-7.284176	39.5458	-21.01978	-1004.486	0.08106724	-0.02790898	0.003446709	-3	-3	-3	0	
17:56:13:613	47.46363	-122.3077	0.02145935	0.02145935	0	0	0	0	0	0	1.208335	2.493075	152.1646	-0.04658004	-0.07307103	-7.284176	39.5458	-21.01978	-1004.486	0.08106724	-0.02790898	0.003446709	-3	-3	-3	0	
17:56:13:620	47.46363	-122.3077	0.02145935	0.02145935	0	0	0	0	0	0	1.208335	2.493075	152.1646	-0.04658004	-0.07307103	-7.284176	39.5458	-21.01978	-1004.486	0.08106724	-0.02790898	0.003446709	-3	-3	-3	0	
17:56:13:625	47.46363	-122.3077	0.02145935	0.02145935	0	0	0	0	0	0	1.208335	2.493075	152.1646	-0.04658004	-0.07307103	-7.284176	39.5458	-21.01978	-1004.486	0.08106724	-0.02790898	0.003446709	-3	-3	-3	0	
17:56:13:630	47.46363	-122.3077	0.02145935	0.02145935	0	0	0	0	0	0	1.208335	2.493075	152.1646	-0.04658004	-0.07307103	-7.284176	39.5458	-21.01978	-1004.486	0.08106724	-0.02790898	0.003446709	-3	-3	-3	0	
17:56:13:644	47.46363	-122.3077	0.02145935	0.02145935	0	0	0	0	0	0	1.208335	2.493075	152.1646	-0.04658004	-0.07307103	-7.284176	39.5458	-21.01978	-1004.486	0.08106724	-0.02790898	0.003446709	-3	-3	-3	0	
17:56:13:656	47.46363	-122.3077	0.02145935	0.02145935	0	0	0	0	0	0	1.208335	2.493075	152.1646	-0.04658004	-0.07307103	-7.284176	39.5458	-21.01978	-1004.486	0.08106724	-0.02790898	0.003446709	-3	-3	-3	0	
17:56:13:674	47.46363	-122.3077	0.02145935	0.02145935	0	0	0	0	0	0	1.194056	2.495354	151.7958	0.06546205	-0.1185237	-7.346378	39.65824	-19.78802	-993.5013	0.08106724	-0.02790898	0.003446709	-3	-3	-3	0	
17:56:13:716	47.46363	-122.3077	0.02145935	0.02145935	0	0	0	0	0	0	1.194056	2.495354	151.7958	0.06546205	-0.1185237	-7.346378	39.65824	-19.78802	-993.5013	0.08106724	-0.02790898	0.003446709	-3	-3	-3	0	
17:56:13:719	47.46363	-122.3077	0.02145935	0.02145935	0	0	0	0	0	0	1.194056	2.495354	151.7958	0.06546205	-0.1185237	-7.346378	39.65824	-19.78802	-993.5013	0.08106724	-0.02790898	0.003446709	-3	-3	-3	0	
17:56:13:743	47.46363	-122.3077	0.02145935	0.02145935	0	0	0	0	0	0	1.194056	2.495354	151.7958	0.06546205	-0.1185237	-7.346378	39.65824	-19.78802	-993.5013	0.08106724	-0.02790898	0.003446709	-3	-3	-3	0	
17:56:13:759	47.46363	-122.3077	0.02145935	0.02145935	0	0	0	0	0	0	1.194056	2.495354	151.7958	0.06546205	-0.1185237	-7.346378	39.65824	-19.78802	-993.5013	0.08106724	-0.02790898	0.003446709	-3	-3	-3	0	
17:56:13:781	47.46363	-122.3077	0.02138745	0.02138745	0	0	0	0	0	0	1.194056	2.495354	151.7958	0.06546205	-0.1185237	-7.346378	39.65824	-19.78802	-993.5013	0.08480012	-0.02908451	0.003643821	-3	-3	-3	0	
17:56:13:822	47.46363	-122.3077	0.02138745	0.02138745	0	0	0	0	0	0	1.176437	2.497058	151.4241	-0.08021997	-0.1229071	-7.404018	39.82399	-19.84792	-1000.697	0.08480012	-0.02908451	0.003643821	-3	-3	-3	0	
17:56:13:842	47.46363	-122.3077	0.02138745	0.02138745	0	0	0	0	0	0	1.176437	2.497058	151.4241	-0.08021997	-0.1229071	-7.404018	39.82399	-19.84792	-1000.697	0.08480012	-0.02908451	0.003643821	-3	-3	-3	0	
17:56:13:857	47.46363	-122.3077	0.02138745	0.02138745	0	0	0	0	0	0	1.176437	2.497058	151.4241	-0.08021997	-0.1229071	-7.404018	39.82399	-19.84792	-1000.697	0.08480012	-0.02908451	0.003643821	-3	-3	-3	0	
17:56:13:883	47.46363	-122.3077	0.02138745	0.02138745	0	0	0	0	0	0	1.176437	2.497058	151.4241	-0.08021997	-0.1229071	-7.404018	39.82399	-19.84792	-1000.697	0.08480012	-0.02908451	0.003643821	-3	-3	-3	0	
17:56:13:926	47.46363	-122.3077	0.02138745	0.02138745	0	0	0	0	0	0	1.176437	2.497058	151.4241	-0.08021997	-0.1229071	-7.404018	39.82399	-19.84792	-1000.697	0.08480012	-0.02908451	0.003643821	-3	-3	-3	0	
17:56:13:957	47.46363	-122.3077	0.02138745	0.02138745	0	0	0	0	0	0	1.155125	2.498621	151.0495	-0.08277804	-0.1226662	-7.458921	39.76098	-19.81591	-994.1068	0.08480012	-0.02908451	0.003643821	-3	-3	-3	0	
17:56:13:964	47.46363	-122.3077	0.02138745	0.02138745	0	0	0	0	0	0	1.155125	2.498621	151.0495	-0.08277804	-0.1226662	-7.458921	39.76098	-19.81591	-994.1068	0.08480012	-0.02908451	0.003643821	-3	-3	-3	0	
17:56:13:980	47.46363	-122.3077	0.02133951	0.02133951	0	0	0	0	0	0	1.155125	2.498621	151.0495	-0.08277804	-0.1226662	-7.458921	39.76098	-19.81591	-994.1068	0.08649308	-0.02979882	0.006041043	-3	-3	-3	0	
17:56:14:26	47.46363	-122.3077	0.02133951	0.02133951	0	0	0	0	0	0	1.155125	2.498621	151.0495	-0.08277804	-0.1226662	-7.458921	39.76098	-19.81591	-994.1068	0.08649308	-0.02979882	0.006041043	-3	-3	-3	0	
17:56:14:43	47.46363	-122.3077	0.02133951	0.02133951	0	0	0	0	0	0	1.155125	2.498621	151.0495	-0.08277804	-0.1226662	-7.458921	39.76098	-19.81591	-994.1068	0.08649308	-0.02979882	0.006041043	-3	-3	-3	0	
17:56:14:59	47.46363	-122.3077	0.02133951	0.02133951	0	0	0	0	0	0	1.155125	2.498621	151.0495	-0.08277804	-0.1226662	-7.458921	39.76098	-19.81591	-994.1068	0.08649308	-0.02979882	0.006041043	-3	-3	-3	0	
17:56:14:79	47.46363	-122.3077	0.02133951	0.02133951	0	0	0	0	0	0	1.155125	2.498621	151.0495	-0.08277804	-0.1226662	-7.458921	39.76098	-19.81591	-994.1068	0.08649308	-0.02979882	0.006041043	-3	-3	-3	0	
17:56:14:123	47.46363	-122.3077	0.02133951	0.02133951	0	0	0	0	0	0	1.139579	2.500448	150.6723	0.04936952	-0.1146817	-7.510965	39.78574	-18.66036	-993.162	0.08649308	-0.02979882	0.006041043	-3	-3	-3	0	
17:56:14:129	47.46363	-122.3077	0.02133951	0.02133951	0	0	0	0	0	0	1.139579	2.500448	150.6723	0.04936952	-0.1146817	-7.510965	39.78574	-18.66036	-993.162	0.08649308	-0.02979882	0.006041043	-3	-3	-3	0	
17:56:14:141	47.46363	-122.3077	0.02133951	0.02133951	0	0	0	0	0	0	1.139579	2.500448	150.6723	0.04936952	-0.1146817	-7.510965	39.78574	-18.66036	-993.162	0.08649308	-0.02979882	0.006041043	-3	-3	-3	0	
17:56:14:161	47.46363	-122.3077	0.02133951	0.02133951	0	0	0	0	0	0	1.139579	2.500448	150.6723	0.04936952	-0.1146817	-7.510965	39.78574	-18.66036	-993.162	0.08649308	-0.02979882	0.006041043	-3	-3	-3	0	
17:56:14:182	47.46363	-122.3077	0.02128263	0.02128263	0	0	0	0	0	0	1.139579	2.500448	150.6723	0.04936952	-0.1146817	-7.510965	39.78574	-18.66036	-993.162	0.09009692	-0.0311362	0.004597307	-3	-3	-3	0	
17:56:14:234	47.46363	-122.3077	0.02128263	0.02128263	0	0	0	0	0	0	1.12577	2.502963	150.2927	-0.01735266	-0.08872561	-7.560061	40.00656	-18.2411	-1005.778	0.09009692	-0.0311362	0.004597307	-3	-3	-3	0	
17:56:14:243	47.46363	-122.3077	0.02128263	0.02128263	0	0	0	0	0	0	1.12577	2.502963	150.2927	-0.01735266	-0.08872561	-7.560061	40.00656	-18.2411	-1005.778	0.09009692	-0.0311362	0.004597307	-3	-3	-3	0	
17:56:14:264	47.46363	-122.3077	0.02128263	0.02128263	0	0	0	0	0	0	1.12577	2.502963	150.2927	-0.01735266	-0.08872561	-7.560061	40.00656	-18.2411	-1005.778	0.09009692	-0.0311362	0.004597307	-3	-3	-3	0	
17:56:14:283	47.46363	-122.3077	0.02128263	0.02128263	0	0	0	0	0	0	1.12577	2.502963	150.2927	-0.01735266	-0.08872561	-7.560061	40.00656	-18.2411	-1005.778	0.09009692	-0.0311362	0.004597307	-3	-3	-3	0	
17:56:14:347	47.46363	-122.3077	0.02128263	0.02128263	0	0	0	0	0	0	1.12577	2.502963	150.2927	-0.01735266	-0.08872561	-7.560061	40.00656	-18.2411	-1005.778	0.09009692	-0.0311362	0.004597307	-3	-3	-3	0	
17:56:14:362	47.46363	-122.3077	0.02128263	0.02128263	0	0	0	0	0	0	1.12577	2.502963	150.2927	-0.01735266	-0.08872561	-7.560061	40.00656	-18.2411	-1005.778	0.09009692	-0.0311362	0.004597307	-3	-3	-3	0	
17:56:14:386	47.46363	-122.3077	0.02145262	0.02145262	0	0	0	0	0	0	1.105586	2.507081	149.9106	-0.06104515	-0.05450807	-7.60694	40.11193	-19.14727	-1004.676	0.09183262	-0.03193837	0.004929465	-3	-3	-3	0	
17:56:14:424	47.46363	-122.3077	0.02145262	0.02145262	0	0	0	0	0	0	1.105586	2.507081	149.9106	-0.06104515	-0.05450807	-7.60694	40.11193	-19.14727	-1004.676	0.09183262	-0.03193837	0.004929465	-3	-3	-3	0	
17:56:14:443	47.46363	-122.3077	0.02145262	0.02145262	0	0	0	0	0	0	1.105586	2.507081	149.9106	-0.06104515	-0.05450807	-7.60694	40.11193	-19.14727	-1004.676	0.09183262	-0.03193837	0.004929465	-3	-3	-3	0	
17:56:14:465	47.46363	-122.3077	0.02145262	0.02145262	0	0	0	0	0	0	1.105586	2.507081	149.9106	-0.06104515	-0.05450807	-7.60694	40.11193	-19.14727	-1004.676	0.09183262	-0.03193837	0.004929465	-3	-3	-3	0	
17:56:14:484	47.46363	-122.3077	0.02145262	0.02145262	0	0	0	0	0	0	1.105586	2.507081	149.9106	-0.06104515	-0.05450807	-7.60694	40.11193	-19.14727	-1004.676	0.09183262	-0.03193837	0.004929465	-3	-3	-3	0	
17:56:14:541	47.46363	-122.3077	0.02145262	0.02145262	0	0	0	0	0	0	1.0885	2.512653	149.5263	0.0199939	-0.02917126	-7.652913	40.13451	-18.00588	-993.2549	0.09183262	-0.03193837	0.004929465	-3	-3	-3	0	
17:56:14:563	47.46363	-122.3077	0.02145262	0.02145262	0	0	0	0	0	0	1.0885	2.512653	149.5263	0.0199939	-0.02917126	-7.652913	40.13451	-18.00588	-993.2549	0.09183262	-0.03193837	0.004929465	-3	-3	-3	0	
17:56:14:583	47.46363	-122.3077	0.02145262	0.02145262	0	0	0	0	0	0	1.0885	2.512653	149.5263	0.0199939	-0.02917126	-7.652913	40.13451	-18.00588	-993.2549	0.09183262	-0.03193837	0.004929465	-3	-3	-3	0	
17:56:14:631	47.46363	-122.3077	0.02139478	0.02139478	0	0	0	0	0	0	1.0885	2.512653	149.5263	0.0199939	-0.02917126	-7.652913	40.13451	-18.00588	-993.2549	0.09523677	-0.03362918	0.003787933	-3	-3	-3	0	
17:56:14:647	47.46363	-122.3077	0.02139478	0.02139478	0	0	0	0	0	0	1.0885	2.512653	149.5263	0.0199939	-0.02917126	-7.652913	40.13451	-18.00588	-993.2549	0.09523677	-0.03362918	0.003787933	-3	-3	-3	0	
17:56:14:663	47.46363	-122.3077	0.02139478	0.02139478	0	0	0	0	0	0	1.0885	2.512653	149.5263	0.0199939	-0.02917126	-7.652913	40.13451	-18.00588	-993.2549	0.09523677	-0.03362918	0.003787933	-3	-3	-3	0	
17:56:14:691	47.46363	-122.3077	0.02139478	0.02139478	0	0	0	0	0	0	1.068749	2.519882	149.1398	-0.1120877	0.008036043	-7.695276	40.0942	-17.52241	-991.6635	0.09523677	-0.03362918	0.003787933	-3	-3	-3	0	
17:56:14:722	47.46363	-122.3077	0.02139478	0.02139478	0	0	0	0	0	0	1.068749	2.519882	149.1398	-0.1120877	0.008036043	-7.695276	40.0942	-17.52241	-991.6635	0.09523677	-0.03362918	0.003787933	-3	-3	-3	0	
17:56:14:746	47.46363	-122.3077	0.02139478	0.02139478	0	0	0	0	0	0	1.068749	2.519882	149.1398	-0.1120877	0.008036043	-7.695276	40.0942	-17.52241	-991.6635	0.09523677	-0.03362918	0.003787933	-3	-3	-3	0	
17:56:14:763	47.46363	-122.3077	0.02139478	0.02139478	0	0	0	0	0	0	1.068749	2.519882	149.1398	-0.1120877	0.008036043	-7.695276	40.0942	-17.52241	-991.6635	0.09523677	-0.03362918	0.003787933	-3	-3	-3	0	
17:56:14:784	47.46363	-122.3077	0.02139478	0.02139478	0	0	0	0	0	0	1.068749	2.519882	149.1398	-0.1120877	0.008036043	-7.695276	40.0942	-17.52241	-991.6635	0.09523677	-0.03362918	0.003787933	-3	-3	-3	0	
17:56:14:835	47.46363	-122.3077	0.0213238	0.0213238	0	0	0	0	0	0	1.046898	2.529584	148.7514	-0.07503676	0.05876685	-7.735173	40.1997	-17.68242	-994.7409	0.09679769	-0.03439283	0.006055954	-3	-3	-3	0	
17:56:14:853	47.46363	-122.3077	0.0213238	0.0213238	0	0	0	0	0	0	1.046898	2.529584	148.7514	-0.07503676	0.05876685	-7.735173	40.1997	-17.68242	-994.7409	0.09679769	-0.03439283	0.006055954	-3	-3	-3	0	
17:56:14:867	47.46363	-122.3077	0.0213238	0.0213238	0	0	0	0	0	0	1.046898	2.529584	148.7514	-0.07503676	0.05876685	-7.735173	40.1997	-17.68242	-994.7409	0.09679769	-0.03439283	0.006055954	-3	-3	-3	0	
17:56:14:886	47.46363	-122.3077	0.0213238	0.0213238	0	0	0	0	0	0	1.046898	2.529584	148.7514	-0.07503676	0.05876685	-7.735173	40.1997	-17.68242	-994.7409	0.09679769	-0.03439283	0.006055954	-3	-3	-3	0	
17:56:14:927	47.46363	-122.3077	0.0213238	0.0213238	0	0	0	0	0	0	1.046898	2.529584	148.7514	-0.07503676	0.05876685	-7.735173	40.1997	-17.68242	-994.7409	0.09679769	-0.03439283	0.006055954	-3	-3	-3	0	
17:56:14:950	47.46363	-122.3077	0.0213238	0.0213238	0	0	0	0	0	0	1.046898	2.529584	148.7514	-0.07503676	0.05876685	-7.735173	40.1997	-17.68242	-994.7409	0.09679769	-0.03439283	0.006055954	-3	-3	-3	0	
17:56:14:990	47.46363	-122.3077	0.0213238	0.0213238	0	0	0	0	0	0	1.030534	2.541148	148.361	0.05729787	0.1045559	-7.772853	40.51105	-16.92089	-1005.816	0.09679769	-0.03439283	0.006055954	-3	-3	-3	0	
17:56:15:7	47.46363	-122.3077	0.0213238	0.0213238	0	0	0	0	0	0	1.030534	2.541148	148.361	0.05729787	0.1045559	-7.772853	40.51105	-16.92089	-1005.816	0.09679769	-0.03439283	0.006055954	-3	-3	-3	0	
17:56:15:26	47.46363	-122.3077	0.0213238	0.0213238	0	0	0	0	0	0	1.030534	2.541148	148.361	0.05729787	0.1045559	-7.772853	40.51105	-16.92089	-1005.816	0.09679769	-0.03439283	0.006055954	-3	-3	-3	0	
17:56:15:45	47.46363	-122.3077	0.02145177	0.02145177	0	0	0	0	0	0	1.030534	2.541148	148.361	0.05729787	0.1045559	-7.772853	40.51105	-16.92089	-1005.816	0.1003106	-0.03600536	0.005017146	-3	-3	-3	0	
17:56:15:67	47.46363	-122.3077	0.02145177	0.02145177	0	0	0	0	0	0	1.030534	2.541148	148.361	0.05729787	0.1045559	-7.772853	40.51105	-16.92089	-1005.816	0.1003106	-0.03600536	0.005017146	-3	-3	-3	0	
17:56:15:93	47.46363	-122.3077	0.02145177	0.02145177	0	0	0	0	0	0	1.030534	2.541148	148.361	0.05729787	0.1045559	-7.772853	40.51105	-16.92089	-1005.816	0.1003106	-0.03600536	0.005017146	-3	-3	-3	0	
17:56:15:123	47.46363	-122.3077	0.02145177	0.02145177	0	0	0	0	0	0	1.011248	2.554105	147.9688	-0.0873606	0.1242728	-7.810411	40.63148	-16.43605	-991.1127	0.1003106	-0.03600536	0.005017146	-3	-3	-3	0	
17:56:15:128	47.46363	-122.3077	0.02145177	0.02145177	0	0	0	0	0	0	1.011248	2.554105	147.9688	-0.0873606	0.1242728	-7.810411	40.63148	-16.43605	-991.1127	0.1003106	-0.03600536	0.005017146	-3	-3	-3	0	
17:56:15:148	47.46363	-122.3077	0.02145177	0.02145177	0	0	0	0	0	0	1.011248	2.554105	147.9688	-0.0873606	0.1242728	-7.810411	40.63148	-16.43605	-991.1127	0.1003106	-0.03600536	0.005017146	-3	-3	-3	0	
17:56:15:166	47.46363	-122.3077	0.02145177	0.02145177	0	0	0	0	0	0	1.011248	2.554105	147.9688	-0.0873606	0.1242728	-7.810411	40.63148	-16.43605	-991.1127	0.1003106	-0.03600536	0.005017146	-3	-3	-3	0	
17:56:15:188	47.46363	-122.3077	0.02145177	0.02145177	0	0	0	0	0	0	1.011248	2.554105	147.9688	-0.0873606	0.1242728	-7.810411	40.63148	-16.43605	-991.1127	0.1003106	-0.03600536	0.005017146	-3	-3	-3	0	
17:56:15:234	47.46363	-122.3077	0.02145177	0.02145177	0	0	0	0	0	0	1.011248	2.554105	147.9688	-0.0873606	0.1242728	-7.810411	40.63148	-16.43605	-991.1127	0.1003106	-0.03600536	0.005017146	-3	-3	-3	0	
17:56:15:256	47.46363	-122.3077	0.02140391	0.02140391	0	0	0	0	0	0	0.9902505	2.566727	147.5747	-0.05652303	0.1083024	-7.845387	40.8665	-16.63008	-996.1914	0.102019	-0.03696318	0.004672866	-3	-3	-3	0	
17:56:15:272	47.46363	-122.3077	0.02140391	0.02140391	0	0	0	0	0	0	0.9902505	2.566727	147.5747	-0.05652303	0.1083024	-7.845387	40.8665	-16.63008	-996.1914	0.102019	-0.03696318	0.004672866	-3	-3	-3	0	
17:56:15:293	47.46363	-122.3077	0.02140391	0.02140391	0	0	0	0	0	0	0.9902505	2.566727	147.5747	-0.05652303	0.1083024	-7.845387	40.8665	-16.63008	-996.1914	0.102019	-0.03696318	0.004672866	-3	-3	-3	0	
17:56:15:349	47.46363	-122.3077	0.02140391	0.02140391	0	0	0	0	0	0	0.9902505	2.566727	147.5747	-0.05652303	0.1083024	-7.845387	40.8665	-16.63008	-996.1914	0.102019	-0.03696318	0.004672866	-3	-3	-3	0	
17:56:15:369	47.46363	-122.3077	0.02140391	0.02140391	0	0	0	0	0	0	0.9902505	2.566727	147.5747	-0.05652303	0.1083024	-7.845387	40.8665	-16.63008	-996.1914	0.102019	-0.03696318	0.004672866	-3	-3	-3	0	
17:56:15:390	47.46363	-122.3077	0.02140391	0.02140391	0	0	0	0	0	0	0.9720791	2.578081	147.179	-0.0292397	0.08721735	-7.877427	41.35281	-15.93556	-1010.835	0.102019	-0.03696318	0.004672866	-3	-3	-3	0	
17:56:15:437	47.46363	-122.3077	0.02140391	0.02140391	0	0	0	0	0	0	0.9720791	2.578081	147.179	-0.0292397	0.08721735	-7.877427	41.35281	-15.93556	-1010.835	0.102019	-0.03696318	0.004672866	-3	-3	-3	0	
17:56:15:452	47.46363	-122.3077	0.02140391	0.02140391	0	0	0	0	0	0	0.9720791	2.578081	147.179	-0.0292397	0.08721735	-7.877427	41.35281	-15.93556	-1010.835	0.102019	-0.03696318	0.004672866	-3	-3	-3	0	
17:56:15:471	47.46363	-122.3077	0.02133159	0.02133159	0	0	0	0	0	0	0.9720791	2.578081	147.179	-0.0292397	0.08721735	-7.877427	41.35281	-15.93556	-1010.835	0.1035795	-0.03805459	0.006636094	-3	-3	-3	0	
17:56:15:492	47.46363	-122.3077	0.02133159	0.02133159	0	0	0	0	0	0	0.9720791	2.578081	147.179	-0.0292397	0.08721735	-7.877427	41.35281	-15.93556	-1010.835	0.1035795	-0.03805459	0.006636094	-3	-3	-3	0	
17:56:15:549	47.46363	-122.3077	0.02133159	0.02133159	0	0	0	0	0	0	0.9549499	2.587524	146.7816	0.04231396	0.04380376	-7.910016	41.36824	-15.44035	-993.874	0.1035795	-0.03805459	0.006636094	-3	-3	-3	0	
17:56:15:569	47.46363	-122.3077	0.02133159	0.02133159	0	0	0	0	0	0	0.9549499	2.587524	146.7816	0.04231396	0.04380376	-7.910016	41.36824	-15.44035	-993.874	0.1035795	-0.03805459	0.006636094	-3	-3	-3	0	
17:56:15:594	47.46363	-122.3077	0.02133159	0.02133159	0	0	0	0	0	0	0.9549499	2.587524	146.7816	0.04231396	0.04380376	-7.910016	41.36824	-15.44035	-993.874	0.1035795	-0.03805459	0.006636094	-3	-3	-3	0	
17:56:15:634	47.46363	-122.3077	0.02133159	0.02133159	0	0	0	0	0	0	0.9549499	2.587524	146.7816	0.04231396	0.04380376	-7.910016	41.36824	-15.44035	-993.874	0.1035795	-0.03805459	0.006636094	-3	-3	-3	0	
17:56:15:660	47.46363	-122.3077	0.02133159	0.02133159	0	0	0	0	0	0	0.9367355	2.596391	146.3827	0.005946969	0.04314509	-7.939789	41.41526	-15.2759	-995.7862	0.1035795	-0.03805459	0.006636094	-3	-3	-3	0	
17:56:15:673	47.46363	-122.3077	0.02135166	0.02135166	0	0	0	0	0	0	0.9367355	2.596391	146.3827	0.005946969	0.04314509	-7.939789	41.41526	-15.2759	-995.7862	0.1070319	-0.03978622	0.00429358	-3	-3	-3	0	
17:56:15:701	47.46363	-122.3077	0.02135166	0.02135166	0	0	0	0	0	0	0.9367355	2.596391	146.3827	0.005946969	0.04314509	-7.939789	41.41526	-15.2759	-995.7862	0.1070319	-0.03978622	0.00429358	-3	-3	-3	0	
17:56:15:734	47.46363	-122.3077	0.02135166	0.02135166	0	0	0	0	0	0	0.9367355	2.596391	146.3827	0.005946969	0.04314509	-7.939789	41.41526	-15.2759	-995.7862	0.1070319	-0.03978622	0.00429358	-3	-3	-3	0	
17:56:15:755	47.46363	-122.3077	0.02135166	0.02135166	0	0	0	0	0	0	0.9367355	2.596391	146.3827	0.005946969	0.04314509	-7.939789	41.41526	-15.2759	-995.7862	0.1070319	-0.03978622	0.00429358	-3	-3	-3	0	
17:56:15:772	47.46363	-122.3077	0.02135166	0.02135166	0	0	0	0	0	0	0.9367355	2.596391	146.3827	0.005946969	0.04314509	-7.939789	41.41526	-15.2759	-995.7862	0.1070319	-0.03978622	0.00429358	-3	-3	-3	0	
17:56:15:798	47.46363	-122.3077	0.02135166	0.02135166	0	0	0	0	0	0	0.9154935	2.604268	145.9823	-0.06175091	0.02330148	-7.968644	41.6097	-15.23079	-997.0218	0.1070319	-0.03978622	0.00429358	-3	-3	-3	0	
17:56:15:836	47.46363	-122.3077	0.02135166	0.02135166	0	0	0	0	0	0	0.9154935	2.604268	145.9823	-0.06175091	0.02330148	-7.968644	41.6097	-15.23079	-997.0218	0.1070319	-0.03978622	0.00429358	-3	-3	-3	0	
17:56:15:857	47.46363	-122.3077	0.02135166	0.02135166	0	0	0	0	0	0	0.9154935	2.604268	145.9823	-0.06175091	0.02330148	-7.968644	41.6097	-15.23079	-997.0218	0.1070319	-0.03978622	0.00429358	-3	-3	-3	0	
17:56:15:872	47.46363	-122.3077	0.02135166	0.02135166	0	0	0	0	0	0	0.9154935	2.604268	145.9823	-0.06175091	0.02330148	-7.968644	41.6097	-15.23079	-997.0218	0.1070319	-0.03978622	0.00429358	-3	-3	-3	0	
17:56:15:893	47.46363	-122.3077	0.02139036	0.02139036	0	0	0	0	0	0	0.9154935	2.604268	145.9823	-0.06175091	0.02330148	-7.968644	41.6097	-15.23079	-997.0218	0.1101865	-0.04191397	0.006228103	-3	-3	-3	0	
17:56:15:940	47.46363	-122.3077	0.02139036	0.02139036	0	0	0	0	0	0	0.8972936	2.611898	145.5806	0.03152406	0.02239683	-7.994064	41.82692	-14.41172	-997.0351	0.1101865	-0.04191397	0.006228103	-3	-3	-3	0	
17:56:15:955	47.46363	-122.3077	0.02139036	0.02139036	0	0	0	0	0	0	0.8972936	2.611898	145.5806	0.03152406	0.02239683	-7.994064	41.82692	-14.41172	-997.0351	0.1101865	-0.04191397	0.006228103	-3	-3	-3	0	
17:56:15:978	47.46363	-122.3077	0.02139036	0.02139036	0	0	0	0	0	0	0.8972936	2.611898	145.5806	0.03152406	0.02239683	-7.994064	41.82692	-14.41172	-997.0351	0.1101865	-0.04191397	0.006228103	-3	-3	-3	0	
17:56:15:996	47.46363	-122.3077	0.02139036	0.02139036	0	0	0	0	0	0	0.8972936	2.611898	145.5806	0.03152406	0.02239683	-7.994064	41.82692	-14.41172	-997.0351	0.1101865	-0.04191397	0.006228103	-3	-3	-3	0	
17:56:16:42	47.46363	-122.3077	0.02139036	0.02139036	0	0	0	0	0	0	0.8972936	2.611898	145.5806	0.03152406	0.02239683	-7.994064	41.82692	-14.41172	-997.0351	0.1101865	-0.04191397	0.006228103	-3	-3	-3	0	
17:56:16:57	47.46363	-122.3077	0.02139036	0.02139036	0	0	0	0	0	0	0.8972936	2.611898	145.5806	0.03152406	0.02239683	-7.994064	41.82692	-14.41172	-997.0351	0.1101865	-0.04191397	0.006228103	-3	-3	-3	0	
17:56:16:73	47.46363	-122.3077	0.02139036	0.02139036	0	0	0	0	0	0	0.8787355	2.619417	145.1775	-0.0004247745	0.02890806	-8.020715	41.91864	-14.0883	-995.4366	0.1101865	-0.04191397	0.006228103	-3	-3	-3	0	
17:56:16:113	47.46363	-122.3077	0.02128407	0.02128407	0	0	0	0	0	0	0.8787355	2.619417	145.1775	-0.0004247745	0.02890806	-8.020715	41.91864	-14.0883	-995.4366	0.1118168	-0.04288833	0.006762665	-3	-3	-3	0	
17:56:16:134	47.46363	-122.3077	0.02128407	0.02128407	0	0	0	0	0	0	0.8787355	2.619417	145.1775	-0.0004247745	0.02890806	-8.020715	41.91864	-14.0883	-995.4366	0.1118168	-0.04288833	0.006762665	-3	-3	-3	0	
17:56:16:136	47.46363	-122.3077	0.02128407	0.02128407	0	0	0	0	0	0	0.8787355	2.619417	145.1775	-0.0004247745	0.02890806	-8.020715	41.91864	-14.0883	-995.4366	0.1118168	-0.04288833	0.006762665	-3	-3	-3	0	
17:56:16:156	47.46363	-122.3077	0.02128407	0.02128407	0	0	0	0	0	0	0.8787355	2.619417	145.1775	-0.0004247745	0.02890806	-8.020715	41.91864	-14.0883	-995.4366	0.1118168	-0.04288833	0.006762665	-3	-3	-3	0	
17:56:16:193	47.46363	-122.3077	0.02128407	0.02128407	0	0	0	0	0	0	0.8787355	2.619417	145.1775	-0.0004247745	0.02890806	-8.020715	41.91864	-14.0883	-995.4366	0.1118168	-0.04288833	0.006762665	-3	-3	-3	0	
17:56:16:203	47.46363	-122.3077	0.02128407	0.02128407	0	0	0	0	0	0	0.8787355	2.619417	145.1775	-0.0004247745	0.02890806	-8.020715	41.91864	-14.0883	-995.4366	0.1118168	-0.04288833	0.006762665	-3	-3	-3	0	
17:56:16:270	47.46363	-122.3077	0.02128407	0.02128407	0	0	0	0	0	0	0.8573759	2.627618	144.7733	-0.0603744	0.04162377	-8.042657	42.09076	-14.03054	-998.0568	0.1118168	-0.04288833	0.006762665	-3	-3	-3	0	
17:56:16:273	47.46363	-122.3077	0.02128407	0.02128407	0	0	0	0	0	0	0.8573759	2.627618	144.7733	-0.0603744	0.04162377	-8.042657	42.09076	-14.03054	-998.0568	0.1118168	-0.04288833	0.006762665	-3	-3	-3	0	
17:56:16:275	47.46363	-122.3077	0.02128407	0.02128407	0	0	0	0	0	0	0.8573759	2.627618	144.7733	-0.0603744	0.04162377	-8.042657	42.09076	-14.03054	-998.0568	0.1118168	-0.04288833	0.006762665	-3	-3	-3	0	
17:56:16:294	47.46363	-122.3077	0.02128407	0.02128407	0	0	0	0	0	0	0.8573759	2.627618	144.7733	-0.0603744	0.04162377	-8.042657	42.09076	-14.03054	-998.0568	0.1118168	-0.04288833	0.006762665	-3	-3	-3	0	
17:56:16:357	47.46363	-122.3077	0.02127458	0.02127458	0	0	0	0	0	0	0.8392623	2.635659	144.3679	0.03496704	0.04217289	-8.066063	42.314	-13.24536	-995.4849	0.1148955	-0.0451341	0.008115375	-3	-3	-3	0	
17:56:16:377	47.46363	-122.3077	0.02127458	0.02127458	0	0	0	0	0	0	0.8392623	2.635659	144.3679	0.03496704	0.04217289	-8.066063	42.314	-13.24536	-995.4849	0.1148955	-0.0451341	0.008115375	-3	-3	-3	0	
17:56:16:397	47.46363	-122.3077	0.02127458	0.02127458	0	0	0	0	0	0	0.8392623	2.635659	144.3679	0.03496704	0.04217289	-8.066063	42.314	-13.24536	-995.4849	0.1148955	-0.0451341	0.008115375	-3	-3	-3	0	
17:56:16:439	47.46363	-122.3077	0.02127458	0.02127458	0	0	0	0	0	0	0.8392623	2.635659	144.3679	0.03496704	0.04217289	-8.066063	42.314	-13.24536	-995.4849	0.1148955	-0.0451341	0.008115375	-3	-3	-3	0	
17:56:16:454	47.46363	-122.3077	0.02127458	0.02127458	0	0	0	0	0	0	0.8392623	2.635659	144.3679	0.03496704	0.04217289	-8.066063	42.314	-13.24536	-995.4849	0.1148955	-0.0451341	0.008115375	-3	-3	-3	0	
17:56:16:475	47.46363	-122.3077	0.02127458	0.02127458	0	0	0	0	0	0	0.8392623	2.635659	144.3679	0.03496704	0.04217289	-8.066063	42.314	-13.24536	-995.4849	0.1148955	-0.0451341	0.008115375	-3	-3	-3	0	
17:56:16:498	47.46363	-122.3077	0.02127458	0.02127458	0	0	0	0	0	0	0.8219398	2.643646	143.9614	-0.05659706	0.02693549	-8.087029	42.37961	-12.52483	-993.1346	0.1148955	-0.0451341	0.008115375	-3	-3	-3	0	
17:56:16:556	47.46363	-122.3077	0.02142501	0.02142501	0	0	0	0	0	0	0.8219398	2.643646	143.9614	-0.05659706	0.02693549	-8.087029	42.37961	-12.52483	-993.1346	0.1165949	-0.04622243	0.005349098	-3	-3	-3	0	
17:56:16:581	47.46363	-122.3077	0.02142501	0.02142501	0	0	0	0	0	0	0.8219398	2.643646	143.9614	-0.05659706	0.02693549	-8.087029	42.37961	-12.52483	-993.1346	0.1165949	-0.04622243	0.005349098	-3	-3	-3	0	
17:56:16:599	47.46363	-122.3077	0.02142501	0.02142501	0	0	0	0	0	0	0.8219398	2.643646	143.9614	-0.05659706	0.02693549	-8.087029	42.37961	-12.52483	-993.1346	0.1165949	-0.04622243	0.005349098	-3	-3	-3	0	
17:56:16:638	47.46363	-122.3077	0.02142501	0.02142501	0	0	0	0	0	0	0.7986006	2.649328	143.5539	-0.08532441	-0.008209079	-8.108435	42.55056	-13.25947	-997.6169	0.1165949	-0.04622243	0.005349098	-3	-3	-3	0	
